time,acc_x,acc_y,acc_z,gyro_x,gyro_y,gyro_z,mag_x,mag_y,mag_z
2025-08-15T23:59:34.714Z,-0.0762,-0.4418,0.2266,-0.1879,0.1435,-0.088,-2.4892,23.223,-38.4111
2025-08-15T23:59:34.724Z,-0.2717,-0.3798,0.2725,0.2111,-0.0023,-0.0531,-2.2993,23.1928,-38.0507
2025-08-15T23:59:34.733Z,-0.4394,-0.5452,0.268,0.32,-0.1591,-0.0578,-2.4677,23.1353,-38.512
2025-08-15T23:59:34.745Z,-0.5475,-0.4868,-0.1115,0.3697,-0.2697,-0.0059,-2.624,22.9622,-38.6283
2025-08-15T23:59:34.755Z,-0.6223,-0.4158,-0.4254,0.2999,-0.2372,0.0536,-2.6625,22.852,-39.0681
2025-08-15T23:59:34.764Z,-0.6641,-0.3773,-0.6304,0.2999,-0.2372,0.0536,-2.6852,22.6041,-38.9476
2025-08-15T23:59:34.775Z,-0.6796,-0.3357,-0.8441,0.0499,-0.0312,0.1605,-2.7551,22.7345,-39.0719
2025-08-15T23:59:34.784Z,-0.6458,-0.2298,-0.9296,0.0499,-0.0312,0.1605,-2.7802,22.7772,-39.0249
2025-08-15T23:59:34.795Z,-0.4994,-0.1257,-0.9817,-0.187,0.2274,0.1906,-2.6277,22.6669,-38.9711
2025-08-15T23:59:34.805Z,-0.3849,-0.0174,-0.951,-0.2792,0.3209,0.173,-2.531,22.777,-39.2034
2025-08-15T23:59:34.814Z,-0.2312,0.1228,-0.7593,-0.2792,0.3209,0.173,-2.4072,22.8338,-38.9101
2025-08-15T23:59:34.825Z,-0.0491,0.2476,-0.5542,-0.335,0.4346,0.1139,-2.3513,22.9649,-38.8756
2025-08-15T23:59:34.833Z,0.0457,0.298,-0.4533,-0.335,0.4346,0.1139,-2.203,22.923,-38.799
2025-08-15T23:59:34.845Z,-0.0321,0.2553,-0.3145,-0.1502,0.3913,0.062,-1.9789,23.0752,-38.5173
2025-08-15T23:59:34.855Z,-0.2366,0.1654,-0.2043,-0.0138,0.3006,0.056,-1.8963,23.1649,-38.5672
2025-08-15T23:59:34.865Z,-0.4521,0.0956,-0.1909,0.1086,0.1806,0.0692,-1.7098,23.24,-38.5624
2025-08-15T23:59:34.876Z,-0.6173,0.0773,-0.1999,0.2066,0.0718,0.0976,-1.6812,23.3171,-38.6864
2025-08-15T23:59:34.883Z,-0.7345,0.0978,-0.3047,0.2066,0.0718,0.0976,-1.6522,23.1707,-38.5831
2025-08-15T23:59:34.895Z,-0.8109,0.1338,-0.4714,0.289,-0.0146,0.1776,-1.4959,23.1997,-38.8119
2025-08-15T23:59:34.905Z,-0.8077,0.1869,-0.652,0.2722,-0.0161,0.2149,-1.5061,23.0414,-38.9519
2025-08-15T23:59:34.916Z,-0.7683,0.2382,-0.8102,0.2178,-0.0049,0.2407,-1.3362,22.9508,-38.704
2025-08-15T23:59:34.925Z,-0.7186,0.2906,-0.8969,0.1331,-0.0002,0.2574,-1.3732,22.772,-38.7961
2025-08-15T23:59:34.933Z,-0.7164,0.3819,-0.9055,0.1331,-0.0002,0.2574,-1.2609,22.7715,-38.8449
2025-08-15T23:59:34.945Z,-0.6393,0.4255,-0.8751,-0.0635,0.038,0.246,-1.3087,22.7294,-38.8584
2025-08-15T23:59:34.955Z,-0.5004,0.5026,-0.8167,-0.1201,0.0717,0.2152,-1.2861,22.7267,-38.9708
2025-08-15T23:59:34.965Z,-0.3647,0.582,-0.624,-0.1254,0.1048,0.1669,-1.025,22.7601,-39.0116
2025-08-15T23:59:34.975Z,-0.2332,0.6196,-0.4423,-0.0925,0.1265,0.1184,-0.8631,22.6831,-38.8117
2025-08-15T23:59:34.985Z,-0.1734,0.6541,-0.2828,-0.0925,0.1265,0.1184,-0.8342,22.7269,-38.962
2025-08-15T23:59:34.995Z,-0.2233,0.699,-0.2021,-0.0493,0.1342,0.0813,-0.8115,22.8414,-39.0084
2025-08-15T23:59:35.005Z,-0.2989,0.6789,-0.238,0.0531,0.1181,0.0703,-0.8822,22.9264,-38.9115
2025-08-15T23:59:35.015Z,-0.3377,0.6229,-0.3514,0.1027,0.0909,0.0998,-0.7775,22.9265,-39.0438
2025-08-15T23:59:35.025Z,-0.4099,0.563,-0.455,0.1379,0.0325,0.138,-0.6811,22.8792,-38.9284
2025-08-15T23:59:35.035Z,-0.4955,0.4935,-0.4708,0.1584,-0.0688,0.1725,-0.7096,22.712,-39.1077
2025-08-15T23:59:35.045Z,-0.5996,0.5253,-0.4241,0.1852,-0.1774,0.1972,-0.8563,22.7607,-39.1421
2025-08-15T23:59:35.054Z,-0.6197,0.6193,-0.3819,0.1852,-0.1774,0.1972,-0.6167,22.8105,-39.2655
2025-08-15T23:59:35.065Z,-0.5931,0.6698,-0.365,0.2279,-0.3396,0.1869,-0.7315,22.77,-39.0457
2025-08-15T23:59:35.075Z,-0.521,0.6896,-0.4226,0.2338,-0.3621,0.159,-0.8598,22.6256,-39.1963
2025-08-15T23:59:35.086Z,-0.4394,0.7319,-0.4514,0.2379,-0.372,0.1407,-0.9378,22.5911,-39.1278
2025-08-15T23:59:35.095Z,-0.4049,0.7866,-0.4037,0.246,-0.3749,0.1261,-1.0666,22.3054,-39.1234
2025-08-15T23:59:35.105Z,-0.38,0.8332,-0.3196,0.2622,-0.364,0.1091,-1.1825,22.2615,-39.3258
2025-08-15T23:59:35.115Z,-0.2777,0.8303,-0.3097,0.2872,-0.3116,0.1028,-1.0496,22.1487,-39.1988
2025-08-15T23:59:35.125Z,-0.1874,0.7573,-0.4175,0.3041,-0.2528,0.0979,-1.2218,22.0303,-39.3458
2025-08-15T23:59:35.136Z,-0.1905,0.7107,-0.5227,0.3007,-0.2003,0.0931,-1.3726,22.0756,-39.3926
2025-08-15T23:59:35.145Z,-0.2796,0.7643,-0.5571,0.2785,-0.1617,0.0914,-1.4387,21.9573,-39.5524
2025-08-15T23:59:35.156Z,-0.4036,0.8811,-0.5498,0.2559,-0.1364,0.1002,-1.4826,21.9267,-39.587
2025-08-15T23:59:35.165Z,-0.4677,0.9661,-0.5836,0.2449,-0.1111,0.116,-1.4794,21.672,-39.4521
2025-08-15T23:59:35.174Z,-0.5034,1.014,-0.6664,0.2321,-0.0972,0.1135,-1.5559,21.576,-39.6033
2025-08-15T23:59:35.185Z,-0.571,1.0135,-0.7113,0.1763,-0.0461,0.0992,-1.7285,21.6026,-39.9485
2025-08-15T23:59:35.194Z,-0.6118,1.0424,-0.8467,0.1028,0.0123,0.0802,-1.669,21.5663,-39.8042
2025-08-15T23:59:35.204Z,-0.6384,1.157,-0.8848,0.0261,0.0645,0.0714,-1.7591,21.6991,-39.8001
2025-08-15T23:59:35.214Z,-0.6172,1.2194,-0.872,-0.0418,0.1062,0.0722,-1.6134,21.5622,-39.9252
2025-08-15T23:59:35.224Z,-0.6098,1.2169,-0.9011,-0.0954,0.1268,0.0683,-1.4503,21.4711,-39.6971
2025-08-15T23:59:35.234Z,-0.6402,1.2087,-0.876,-0.1375,0.1667,0.0515,-1.3101,21.3889,-39.8022
2025-08-15T23:59:35.246Z,-0.5903,1.2624,-0.7982,-0.1572,0.1734,0.038,-1.3685,21.4867,-39.738
2025-08-15T23:59:35.254Z,-0.5459,1.3738,-0.6315,-0.1373,0.1458,0.0335,-1.3529,21.5962,-39.7872
2025-08-15T23:59:35.265Z,-0.5849,1.4095,-0.485,-0.0882,0.0942,0.0217,-1.3353,21.6581,-39.6393
2025-08-15T23:59:35.275Z,-0.6503,1.3849,-0.3848,-0.0239,0.0328,0.003,-1.2468,21.6391,-39.5851
2025-08-15T23:59:35.284Z,-0.7175,1.2911,-0.2691,-0.0239,0.0328,0.003,-1.4074,21.8321,-39.6418
2025-08-15T23:59:35.295Z,-0.72,1.1745,-0.0656,0.0667,-0.026,0.0114,-1.3709,21.7642,-39.6552
2025-08-15T23:59:35.305Z,-0.7152,1.1281,0.0323,0.1126,-0.036,0.0513,-1.3433,21.5382,-39.6057
2025-08-15T23:59:35.314Z,-0.7046,1.1038,0.0449,0.1542,-0.0607,0.0809,-1.2365,21.6368,-39.7006
2025-08-15T23:59:35.325Z,-0.7475,1.068,0.1024,0.1866,-0.1321,0.0968,-1.3139,21.5601,-39.7257
2025-08-15T23:59:35.334Z,-0.8156,1.0143,0.2991,0.2144,-0.2291,0.08,-1.3517,21.4836,-39.6592
2025-08-15T23:59:35.345Z,-0.806,0.9297,0.4636,0.2295,-0.3296,0.0388,-1.567,21.2612,-39.7924
2025-08-15T23:59:35.355Z,-0.7354,0.927,0.5991,0.2468,-0.4065,-0.0038,-1.6802,21.2431,-40.0639
2025-08-15T23:59:35.365Z,-0.7067,0.9418,0.6472,0.2713,-0.4378,-0.023,-1.7012,20.9125,-39.9073
2025-08-15T23:59:35.375Z,-0.6804,0.9134,0.5984,0.3015,-0.3588,-0.0167,-1.7868,20.9734,-39.8085
2025-08-15T23:59:35.385Z,-0.6824,0.8672,0.4629,0.3332,-0.1838,0.0246,-2.0201,20.7811,-39.837
2025-08-15T23:59:35.395Z,-0.711,0.9495,0.3023,0.3648,-0.0419,0.0938,-2.0974,20.7456,-39.9823
2025-08-15T23:59:35.405Z,-0.7008,0.9746,0.3469,0.3726,0.0238,0.1495,-2.2183,20.8191,-40.112
2025-08-15T23:59:35.414Z,-0.7014,0.8725,0.5042,0.3482,-0.0063,0.1637,-2.1593,20.5126,-40.3393
2025-08-15T23:59:35.424Z,-0.7376,0.7472,0.6556,0.2736,-0.0934,0.1388,-2.0472,20.3686,-40.1174
2025-08-15T23:59:35.434Z,-0.6798,0.6321,0.8047,0.168,-0.1772,0.1097,-2.0241,20.1812,-40.2918
2025-08-15T23:59:35.445Z,-0.5421,0.6414,0.9002,0.0367,-0.2307,0.0716,-2.2828,20.3037,-40.4053
2025-08-15T23:59:35.456Z,-0.4054,0.6689,0.9681,-0.0953,-0.2318,0.0354,-2.3327,20.3518,-40.4946
2025-08-15T23:59:35.464Z,-0.2029,0.6216,1.0245,-0.2032,-0.1463,-0.0034,-2.4206,20.2846,-40.5805
2025-08-15T23:59:35.475Z,-0.0469,0.5533,0.9288,-0.2788,0.0083,-0.0424,-2.4496,20.5267,-40.4804
2025-08-15T23:59:35.484Z,-0.014,0.4744,0.7625,-0.3172,0.1556,-0.0732,-2.3126,20.4777,-40.5827
2025-08-15T23:59:35.495Z,-0.0873,0.3712,0.7029,-0.3223,0.2637,-0.0887,-2.3413,20.6758,-40.4502
2025-08-15T23:59:35.504Z,-0.184,0.2711,0.678,-0.2921,0.3315,-0.0998,-2.213,20.6395,-40.5895
2025-08-15T23:59:35.515Z,-0.246,0.1504,0.6384,-0.2284,0.3689,-0.095,-2.0727,20.7728,-40.4726
2025-08-15T23:59:35.524Z,-0.2678,-0.0199,0.5223,-0.1485,0.369,-0.0691,-1.9687,20.9084,-40.4205
2025-08-15T23:59:35.534Z,-0.3126,-0.1725,0.3666,-0.0499,0.344,-0.017,-1.9027,21.1549,-40.2568
2025-08-15T23:59:35.546Z,-0.3476,-0.3091,0.1857,0.0492,0.327,0.0445,-1.7811,20.8916,-40.2794
2025-08-15T23:59:35.554Z,-0.412,-0.4576,-0.0547,0.1393,0.335,0.0985,-1.6312,20.8551,-40.4032
2025-08-15T23:59:35.564Z,-0.4505,-0.634,-0.2976,0.2086,0.3624,0.1478,-1.5149,20.8068,-40.3997
2025-08-15T23:59:35.574Z,-0.4259,-0.8312,-0.5354,0.25,0.4159,0.2008,-1.1405,20.7448,-40.2841
2025-08-15T23:59:35.584Z,-0.3567,-0.9902,-0.7806,0.261,0.4987,0.2638,-1.0877,20.7183,-40.3887
2025-08-15T23:59:35.594Z,-0.2415,-1.0482,-1.0011,0.2567,0.5675,0.3346,-0.895,20.4149,-40.4735
2025-08-15T23:59:35.605Z,-0.1333,-0.9814,-1.0802,0.2521,0.6028,0.4055,-0.7793,20.4744,-40.7022
2025-08-15T23:59:35.614Z,0.0009,-0.9198,-1.0695,0.2484,0.6299,0.4559,-0.4633,20.3798,-40.8795
2025-08-15T23:59:35.624Z,0.1775,-0.9254,-1.0944,0.2498,0.6257,0.4697,-0.0924,20.3367,-40.6795
2025-08-15T23:59:35.634Z,0.3754,-0.9335,-1.0316,0.2602,0.5582,0.4514,0.3021,20.2012,-40.9074
2025-08-15T23:59:35.644Z,0.5728,-0.9617,-0.8657,0.2621,0.4425,0.3904,0.6723,20.0406,-40.8285
2025-08-15T23:59:35.654Z,0.7431,-1.0365,-0.6792,0.2595,0.2905,0.3123,0.7433,19.9722,-40.9386
2025-08-15T23:59:35.664Z,0.8892,-1.1488,-0.5527,0.2426,0.1171,0.2227,0.8814,19.7708,-41.1281
2025-08-15T23:59:35.674Z,0.9952,-1.2542,-0.447,0.2019,-0.0612,0.1404,1.0431,19.784,-41.0069
2025-08-15T23:59:35.684Z,1.0661,-1.3323,-0.3158,0.1518,-0.2227,0.0774,1.0461,19.4879,-40.7878
2025-08-15T23:59:35.694Z,1.0861,-1.3806,-0.1996,0.0972,-0.3101,0.0467,0.8791,19.554,-41.1316
2025-08-15T23:59:35.704Z,1.0806,-1.4194,-0.1791,0.0489,-0.3137,0.0336,0.7088,19.5352,-41.1481
2025-08-15T23:59:35.714Z,1.0336,-1.4128,-0.1942,0.0092,-0.2501,0.0351,0.7005,19.5644,-41.0759
2025-08-15T23:59:35.724Z,1.014,-1.4008,-0.2348,-0.0181,-0.1232,0.0425,0.5877,19.643,-41.1377
2025-08-15T23:59:35.734Z,1.0487,-1.3674,-0.3952,-0.0404,0.0454,0.0514,0.6691,19.6228,-41.2379
2025-08-15T23:59:35.744Z,1.0315,-1.3085,-0.6159,-0.0631,0.2075,0.0515,0.7408,19.6286,-41.0654
2025-08-15T23:59:35.754Z,0.9942,-1.1957,-0.7386,-0.0943,0.3295,0.0401,0.7622,19.634,-41.2305
2025-08-15T23:59:35.764Z,0.899,-1.0429,-0.7858,-0.1303,0.4076,0.0209,0.8235,19.7206,-41.2343
2025-08-15T23:59:35.774Z,0.8043,-0.8643,-0.8667,-0.1661,0.4451,0.0027,1.0455,19.7636,-41.0247
2025-08-15T23:59:35.784Z,0.7158,-0.675,-0.966,-0.1996,0.4381,-0.0179,1.1296,19.6138,-41.2428
2025-08-15T23:59:35.794Z,0.5924,-0.5089,-0.9613,-0.2369,0.3957,-0.0504,1.3831,19.7037,-40.9995
2025-08-15T23:59:35.804Z,0.5253,-0.4302,-1.013,-0.2648,0.3518,-0.0728,1.3432,19.7239,-40.9404
2025-08-15T23:59:35.814Z,0.5239,-0.3867,-1.1777,-0.2917,0.3243,-0.0837,1.5637,19.7488,-41.0993
2025-08-15T23:59:35.824Z,0.5241,-0.3808,-1.3289,-0.3112,0.3,-0.0912,1.7415,19.9131,-40.8425
2025-08-15T23:59:35.834Z,0.4381,-0.3355,-1.3473,-0.3299,0.2484,-0.0909,1.7751,20.178,-41.021
2025-08-15T23:59:35.845Z,0.345,-0.2454,-1.2235,-0.3416,0.1894,-0.0795,1.8586,20.2789,-40.887
2025-08-15T23:59:35.854Z,0.358,-0.1374,-1.0656,-0.3238,0.1484,-0.061,1.8833,20.2701,-40.8538
2025-08-15T23:59:35.864Z,0.3553,-0.0474,-0.9832,-0.2888,0.1217,-0.0488,1.7848,20.6816,-40.8758
2025-08-15T23:59:35.874Z,0.408,0.0545,-0.8928,-0.2499,0.0863,-0.0372,1.8349,20.7841,-40.688
2025-08-15T23:59:35.885Z,0.4989,0.1464,-0.7809,-0.2055,0.0409,-0.0319,1.9422,20.8607,-40.6322
2025-08-15T23:59:35.894Z,0.6306,0.1717,-0.6581,-0.1684,0.0159,-0.048,1.9639,20.9119,-40.7529
2025-08-15T23:59:35.904Z,0.7477,0.1774,-0.6902,-0.1427,0.0014,-0.0789,2.0565,20.8689,-40.6468
2025-08-15T23:59:35.914Z,0.8881,0.2077,-0.6204,-0.1193,-0.0228,-0.1395,2.0248,20.9851,-40.5009
2025-08-15T23:59:35.924Z,1.1032,0.1551,-0.5415,-0.0774,-0.0386,-0.2333,2.0456,21.019,-40.4602
2025-08-15T23:59:35.935Z,1.2388,0.174,-0.4628,-0.0289,-0.0223,-0.3081,1.9604,21.0387,-40.5964
2025-08-15T23:59:35.944Z,1.0824,0.3678,-0.4423,0.014,-0.0441,-0.345,1.8341,21.0236,-40.622
2025-08-15T23:59:35.954Z,0.8261,0.5217,-0.2569,0.0203,-0.0728,-0.3289,1.789,21.0538,-40.6113
2025-08-15T23:59:35.964Z,0.6531,0.5563,-0.1759,-0.0092,-0.0715,-0.2738,1.6182,21.0054,-40.5938
2025-08-15T23:59:35.974Z,0.6307,0.6046,-0.2883,-0.0666,-0.0656,-0.2039,1.5377,20.9081,-40.8312
2025-08-15T23:59:35.983Z,0.6542,0.634,-0.2692,-0.1325,-0.0488,-0.1312,1.4935,21.0664,-40.759
2025-08-15T23:59:35.994Z,0.596,0.6738,-0.1974,-0.1785,-0.0095,-0.0571,1.4628,21.0807,-40.7269
2025-08-15T23:59:36.004Z,0.5647,0.7601,-0.0826,-0.1884,0.0498,0.0076,1.5055,21.1244,-40.5684
2025-08-15T23:59:36.014Z,0.5796,0.7992,-0.0576,-0.1559,0.1172,0.0523,1.5023,21.1442,-40.5123
2025-08-15T23:59:36.024Z,0.5869,0.7873,0.0682,-0.0793,0.1921,0.0776,1.462,21.3323,-40.6526
2025-08-15T23:59:36.033Z,0.5983,0.7617,0.1505,0.0232,0.2451,0.0837,1.6071,21.3455,-40.6065
2025-08-15T23:59:36.044Z,0.5713,0.7794,0.1949,0.1196,0.2484,0.0847,1.7477,21.3002,-40.5792
2025-08-15T23:59:36.054Z,0.505,0.8268,0.3581,0.196,0.1984,0.0831,1.7326,21.273,-40.4786
2025-08-15T23:59:36.064Z,0.3901,0.9155,0.5088,0.2525,0.1218,0.0826,1.8271,21.1476,-40.8353
2025-08-15T23:59:36.074Z,0.3013,0.9832,0.556,0.281,0.0471,0.079,1.8691,21.0052,-40.6944
2025-08-15T23:59:36.084Z,0.3014,0.9465,0.5796,0.2872,-0.0135,0.0728,1.9394,20.8945,-40.891
2025-08-15T23:59:36.094Z,0.299,0.8823,0.5787,0.2624,-0.0661,0.0714,2.0714,20.7982,-40.7997
2025-08-15T23:59:36.104Z,0.2704,0.8175,0.6313,0.219,-0.124,0.0853,1.9652,20.7704,-40.8969
2025-08-15T23:59:36.114Z,0.2338,0.7611,0.6983,0.161,-0.1853,0.0998,1.8866,20.7492,-40.9107
2025-08-15T23:59:36.124Z,0.1953,0.6787,0.8288,0.1109,-0.1882,0.106,1.85,20.79,-40.9826
2025-08-15T23:59:36.134Z,0.1713,0.5528,0.8617,0.0729,-0.1145,0.117,1.9322,20.7234,-40.7972
2025-08-15T23:59:36.144Z,0.1202,0.5053,0.7816,0.0456,-0.0446,0.1247,1.8212,20.6856,-41.111
2025-08-15T23:59:36.154Z,0.0896,0.5225,0.85,0.0073,-0.0249,0.118,1.6797,20.5618,-41.2108
2025-08-15T23:59:36.164Z,0.0444,0.5181,1.0122,-0.0385,-0.0679,0.0967,1.8536,20.4902,-41.1081
2025-08-15T23:59:36.174Z,0.0593,0.406,1.2313,-0.0817,-0.1283,0.0582,1.8301,20.5888,-41.2594
2025-08-15T23:59:36.184Z,0.0683,0.2533,1.3578,-0.1105,-0.1957,0.0216,1.7277,20.5995,-41.0297
2025-08-15T23:59:36.197Z,-0.1562,0.2119,1.7128,-0.1193,-0.2536,0.0061,1.4186,20.6405,-41.2769
2025-08-15T23:59:36.204Z,-0.1562,0.2119,1.7128,-0.0869,-0.2778,0.0087,1.4186,20.6405,-41.2769
2025-08-15T23:59:36.214Z,-0.2445,0.1309,1.7311,-0.0318,-0.2685,0.0228,1.3046,20.891,-41.1906
2025-08-15T23:59:36.227Z,-0.2756,-0.3395,1.3461,0.0348,-0.211,0.0529,1.3404,20.652,-40.9496
2025-08-15T23:59:36.234Z,-0.2756,-0.3395,1.3461,0.104,-0.1359,0.1127,1.3404,20.652,-40.9496
2025-08-15T23:59:36.247Z,-0.3057,-0.5075,0.8661,0.1745,-0.0538,0.1803,1.3239,20.5402,-41.2521
2025-08-15T23:59:36.254Z,-0.3057,-0.5075,0.8661,0.234,0.0157,0.241,1.3239,20.5402,-41.2521
2025-08-15T23:59:36.264Z,-0.3484,-0.5399,0.6167,0.2618,0.0689,0.2709,1.2902,20.3603,-41.5984
2025-08-15T23:59:36.276Z,-0.3757,-0.6118,0.1984,0.2728,0.1028,0.283,1.5656,20.0635,-41.5953
2025-08-15T23:59:36.283Z,-0.3757,-0.6118,0.1984,0.2764,0.1315,0.2872,1.5656,20.0635,-41.5953
2025-08-15T23:59:36.296Z,-0.3326,-0.8038,-0.517,0.2781,0.1857,0.2773,1.7235,19.879,-41.4883
2025-08-15T23:59:36.307Z,-0.4102,-0.9448,-0.7728,0.266,0.2451,0.2682,1.7942,19.8064,-41.6283
2025-08-15T23:59:36.314Z,-0.4102,-0.9448,-0.7728,0.2534,0.2912,0.2829,1.7942,19.8064,-41.6283
2025-08-15T23:59:36.326Z,-0.5963,-0.9294,-1.282,0.2592,0.3498,0.32,2.2608,19.3908,-41.6748
2025-08-15T23:59:36.334Z,-0.5963,-0.9294,-1.282,0.2663,0.4191,0.3506,2.2608,19.3908,-41.6748
2025-08-15T23:59:36.346Z,-0.7884,-1.0293,-1.7779,0.2522,0.4566,0.3673,2.5863,19.1143,-41.821
2025-08-15T23:59:36.356Z,-0.8884,-0.9303,-1.7388,0.2088,0.4251,0.378,2.7355,19.0467,-41.8346
2025-08-15T23:59:36.367Z,-1.0149,-0.7706,-1.6515,0.1395,0.3269,0.3944,2.9495,18.9544,-41.8893
2025-08-15T23:59:36.376Z,-1.1241,-0.6085,-1.5531,0.0567,0.1809,0.4108,3.2009,18.9934,-41.7055
2025-08-15T23:59:36.384Z,-1.1241,-0.6085,-1.5531,-0.0265,-0.0154,0.4067,3.2009,18.9934,-41.7055
2025-08-15T23:59:36.396Z,-1.168,-0.5442,-0.9514,-0.1015,-0.2455,0.3737,3.0425,18.9179,-41.7899
2025-08-15T23:59:36.406Z,-1.0479,-0.5552,-0.5685,-0.1579,-0.4343,0.323,3.0074,19.0521,-41.9015
2025-08-15T23:59:36.414Z,-1.0479,-0.5552,-0.5685,-0.1654,-0.5261,0.2701,3.0074,19.0521,-41.9015
2025-08-15T23:59:36.426Z,-0.5814,-0.7279,-0.1511,-0.1362,-0.5239,0.2202,2.8435,18.9761,-41.7341
2025-08-15T23:59:36.434Z,-0.5814,-0.7279,-0.1511,-0.0925,-0.4809,0.1626,2.8435,18.9761,-41.7341
2025-08-15T23:59:36.446Z,-0.6668,-0.9209,0.3122,-0.0626,-0.4194,0.1137,2.3411,19.1284,-41.9288
2025-08-15T23:59:36.457Z,-0.7661,-0.8356,0.5086,-0.0421,-0.3451,0.094,2.2961,19.0582,-42.1781
2025-08-15T23:59:36.466Z,-0.8631,-0.765,0.4546,-0.0185,-0.2179,0.1202,2.221,19.208,-42.0936
2025-08-15T23:59:36.476Z,-0.9395,-0.8401,0.3344,0.0112,-0.0752,0.1616,2.4064,19.0417,-42.1
2025-08-15T23:59:36.486Z,-1.0214,-0.9269,0.2591,0.032,0.0475,0.2137,2.3896,19.032,-42.1281
2025-08-15T23:59:36.496Z,-1.0939,-0.9142,0.0254,0.0471,0.1639,0.2736,2.332,19.0125,-42.0595
2025-08-15T23:59:36.505Z,-1.1039,-0.7883,-0.2075,0.0478,0.2589,0.3378,2.332,19.0125,-42.0595
2025-08-15T23:59:36.516Z,-1.016,-0.6472,-0.4311,0.0373,0.3393,0.3898,2.6716,18.8843,-41.9019
2025-08-15T23:59:36.525Z,-0.9525,-0.559,-0.6202,0.0164,0.3861,0.4118,2.6716,18.8843,-41.9019
2025-08-15T23:59:36.536Z,-0.9136,-0.4494,-0.7361,-0.0094,0.3924,0.4098,2.9116,18.859,-41.8186
2025-08-15T23:59:36.546Z,-0.9189,-0.2999,-0.851,-0.0393,0.3779,0.3895,3.1395,18.7191,-41.7752
2025-08-15T23:59:36.556Z,-0.9316,-0.1308,-0.8973,-0.0831,0.3472,0.3525,3.308,18.7521,-41.8722
2025-08-15T23:59:36.566Z,-0.8757,-0.026,-0.9138,-0.1267,0.2944,0.3193,3.5412,18.7526,-41.6172
2025-08-15T23:59:36.576Z,-0.8146,-0.0825,-1.0105,-0.1528,0.252,0.3011,3.5993,18.8881,-41.5487
2025-08-15T23:59:36.586Z,-0.77,-0.1652,-1.05,-0.1697,0.2143,0.288,3.8747,18.9629,-41.6115
2025-08-15T23:59:36.597Z,-0.801,-0.183,-1.0032,-0.1791,0.1698,0.2855,3.9972,19.0172,-41.5638
2025-08-15T23:59:36.605Z,-0.8444,-0.1228,-0.8977,-0.1776,0.1234,0.2902,4.1357,19.0056,-41.6214
2025-08-15T23:59:36.615Z,-0.7888,-0.0425,-0.7832,-0.1604,0.0887,0.2986,4.1739,18.9488,-41.5996
2025-08-15T23:59:36.626Z,-0.6892,-0.0345,-0.7868,-0.1291,0.0795,0.3061,4.2473,19.0129,-41.6443
2025-08-15T23:59:36.635Z,-0.6568,-0.0593,-0.7558,-0.0905,0.0837,0.3049,4.4243,19.1766,-41.3893
2025-08-15T23:59:36.646Z,-0.6671,-0.0421,-0.64,-0.0585,0.071,0.3,4.4647,19.1157,-41.2811
2025-08-15T23:59:36.656Z,-0.725,0.0535,-0.5392,-0.0389,0.0518,0.3024,4.4264,19.1617,-41.5776
2025-08-15T23:59:36.666Z,-0.7318,0.1889,-0.4543,-0.0357,0.041,0.3126,4.5988,19.0482,-41.2886
2025-08-15T23:59:36.675Z,-0.6777,0.2737,-0.4054,-0.0339,0.0437,0.3231,4.4606,19.0087,-41.571
2025-08-15T23:59:36.685Z,-0.6561,0.2988,-0.3725,-0.0262,0.0578,0.3342,4.5329,19.1118,-41.4568
2025-08-15T23:59:36.695Z,-0.7067,0.3279,-0.2725,-0.0159,0.0583,0.3378,4.64,18.9758,-41.5347
2025-08-15T23:59:36.705Z,-0.7435,0.3817,-0.1596,-0.0038,0.0551,0.3463,4.6872,19.0167,-41.3818
2025-08-15T23:59:36.715Z,-0.7323,0.4828,-0.0374,0.0163,0.0592,0.3531,4.726,19.1081,-41.4253
2025-08-15T23:59:36.725Z,-0.6062,0.5771,0.0395,0.051,0.0834,0.3553,4.7378,19.1659,-41.427
2025-08-15T23:59:36.735Z,-0.5542,0.5707,0.0451,0.095,0.1054,0.3491,4.7845,19.1861,-41.448
2025-08-15T23:59:36.745Z,-0.5858,0.5663,0.1394,0.1276,0.0896,0.3269,4.9463,19.0093,-41.5117
2025-08-15T23:59:36.755Z,-0.6416,0.6106,0.2381,0.1563,0.0301,0.2999,5.2411,18.9536,-41.5361
2025-08-15T23:59:36.765Z,-0.6853,0.6791,0.3224,0.1745,-0.0526,0.2721,5.2348,18.7903,-41.5699
2025-08-15T23:59:36.775Z,-0.6275,0.7106,0.4618,0.2033,-0.1437,0.2454,5.1547,18.9389,-41.5775
2025-08-15T23:59:36.785Z,-0.5233,0.6261,0.5379,0.2356,-0.2234,0.2135,5.0618,18.6599,-41.7895
2025-08-15T23:59:36.795Z,-0.451,0.4839,0.6508,0.2722,-0.3051,0.1745,5.0761,18.6032,-41.6886
2025-08-15T23:59:36.805Z,-0.3988,0.3767,0.761,0.2967,-0.3811,0.1289,4.9502,18.5929,-41.65
2025-08-15T23:59:36.814Z,-0.3288,0.3174,0.8076,0.2929,-0.4119,0.0826,4.8693,18.3619,-41.8445
2025-08-15T23:59:36.825Z,-0.2433,0.2449,0.866,0.2687,-0.4174,0.0546,4.6655,18.2483,-42.1004
2025-08-15T23:59:36.835Z,-0.2064,0.1299,0.8019,0.2323,-0.3654,0.0373,4.6789,18.0132,-42.126
2025-08-15T23:59:36.846Z,-0.2695,0.0813,0.6324,0.192,-0.2354,0.0429,4.4612,18.0154,-42.2744
2025-08-15T23:59:36.855Z,-0.3319,0.1465,0.4694,0.1412,-0.0949,0.0665,4.2937,17.9334,-42.2843
2025-08-15T23:59:36.865Z,-0.3485,0.2249,0.486,0.0519,-0.0208,0.0963,4.1374,17.8928,-42.1627
2025-08-15T23:59:36.874Z,-0.3236,0.271,0.6036,-0.0593,-0.0482,0.1091,4.1529,17.7982,-42.0114
2025-08-15T23:59:36.885Z,-0.1873,0.2615,0.8787,-0.1647,-0.1571,0.0866,4.103,17.8497,-42.0756
2025-08-15T23:59:36.894Z,-0.0106,0.2356,1.2342,-0.2318,-0.2923,0.0373,4.1285,17.6925,-41.9927
2025-08-15T23:59:36.904Z,0.2711,0.1494,1.4383,-0.2266,-0.3466,-0.03,4.0082,17.9479,-41.961
2025-08-15T23:59:36.914Z,0.5315,-0.0621,1.4754,-0.1605,-0.3245,-0.0873,3.8265,18.017,-42.1175
2025-08-15T23:59:36.924Z,0.6256,-0.3604,1.4543,-0.0624,-0.2588,-0.1315,3.7291,18.1969,-41.9561
2025-08-15T23:59:36.934Z,0.5792,-0.577,1.2815,0.0494,-0.1638,-0.1483,3.5067,18.2169,-41.92
2025-08-15T23:59:36.944Z,0.4621,-0.6358,0.9963,0.1567,-0.0459,-0.1345,3.5087,18.1948,-41.8558
2025-08-15T23:59:36.954Z,0.4082,-0.6966,0.6565,0.2463,0.057,-0.0968,3.3711,18.155,-41.924
2025-08-15T23:59:36.964Z,0.3934,-0.8081,0.2644,0.3024,0.1447,-0.0646,3.4106,17.9692,-41.9368
2025-08-15T23:59:36.974Z,0.4486,-0.9531,-0.0437,0.3338,0.193,-0.0472,3.4016,17.8342,-42.1554
2025-08-15T23:59:36.984Z,0.4982,-1.047,-0.3513,0.3386,0.211,-0.0455,3.5233,17.7001,-42.1177
2025-08-15T23:59:36.995Z,0.5124,-1.0951,-0.6636,0.3211,0.2275,-0.0549,3.7309,17.4176,-42.1934
2025-08-15T23:59:37.004Z,0.5161,-1.0876,-0.9637,0.2955,0.2617,-0.0601,3.7703,17.4481,-42.2076
2025-08-15T23:59:37.014Z,0.4975,-1.1219,-1.2615,0.272,0.3046,-0.0461,3.9029,17.3821,-42.1528
2025-08-15T23:59:37.024Z,0.4508,-1.1545,-1.4988,0.2598,0.3442,-0.0268,4.0099,17.1789,-41.911
2025-08-15T23:59:37.034Z,0.3764,-1.1495,-1.5972,0.2455,0.3544,-0.0066,4.0868,17.1062,-41.8609
2025-08-15T23:59:37.044Z,0.3649,-1.0975,-1.5683,0.2306,0.3182,0.0091,4.3568,17.0509,-42.0658
2025-08-15T23:59:37.054Z,0.3819,-1.0437,-1.6049,0.2147,0.2657,0.024,4.3741,16.8728,-42.1217
2025-08-15T23:59:37.064Z,0.4077,-1.0145,-1.5429,0.1831,0.1637,0.0265,4.4199,16.7651,-42.2162
2025-08-15T23:59:37.074Z,0.4103,-0.9985,-1.3772,0.1346,0.0176,0.0115,4.4219,16.7196,-42.1506
2025-08-15T23:59:37.084Z,0.4201,-0.9316,-1.1053,0.0692,-0.1669,-0.02,4.3835,16.735,-42.1234
2025-08-15T23:59:37.094Z,0.5274,-0.8363,-0.8474,0.013,-0.3345,-0.065,4.4964,16.6099,-42.1387
2025-08-15T23:59:37.103Z,0.6918,-0.8155,-0.7142,-0.0255,-0.4525,-0.1178,4.2889,16.8058,-42.0498
2025-08-15T23:59:37.114Z,0.7292,-0.8613,-0.5666,-0.0601,-0.5197,-0.1755,4.0375,16.8443,-41.8881
2025-08-15T23:59:37.124Z,0.6229,-0.8486,-0.373,-0.1026,-0.5586,-0.2305,3.7559,16.8227,-41.8901
2025-08-15T23:59:37.134Z,0.4784,-0.8082,-0.2788,-0.1496,-0.5419,-0.2682,3.4698,16.9172,-42.3338
2025-08-15T23:59:37.144Z,0.3603,-0.8537,-0.3588,-0.1975,-0.4559,-0.2739,3.3256,16.9404,-42.3165
2025-08-15T23:59:37.154Z,0.1925,-0.8783,-0.4041,-0.2559,-0.3468,-0.2657,2.9501,17.0731,-42.1811
2025-08-15T23:59:37.164Z,-0.0133,-0.8419,-0.3325,-0.3316,-0.2343,-0.2415,2.7278,17.1462,-42.1354
2025-08-15T23:59:37.174Z,-0.1207,-0.7432,-0.2493,-0.4129,-0.1227,-0.1933,2.5523,17.2678,-42.3314
2025-08-15T23:59:37.184Z,-0.1299,-0.6782,-0.2846,-0.4809,0.0017,-0.128,2.5127,17.4768,-42.0197
2025-08-15T23:59:37.194Z,-0.1566,-0.6621,-0.2473,-0.5283,0.0891,-0.0607,2.7162,17.8186,-41.9523
2025-08-15T23:59:37.204Z,-0.222,-0.6034,-0.1168,-0.5528,0.1221,-0.0019,2.6872,17.8902,-41.9877
2025-08-15T23:59:37.214Z,-0.2693,-0.4922,0.0214,-0.5555,0.1132,0.0601,2.7294,18.1182,-41.7308
2025-08-15T23:59:37.224Z,-0.1934,-0.3852,0.0561,-0.5204,0.0845,0.1242,2.6985,18.2176,-41.8039
2025-08-15T23:59:37.234Z,-0.0836,-0.3512,0.003,-0.4567,0.0681,0.1807,2.7776,18.4485,-41.7885
2025-08-15T23:59:37.244Z,-0.0006,-0.3398,-0.0917,-0.3723,0.0545,0.2285,2.8829,18.5623,-41.5854
2025-08-15T23:59:37.254Z,0.0543,-0.2799,-0.1656,-0.2795,0.0195,0.2718,2.903,18.7161,-41.5134
2025-08-15T23:59:37.264Z,0.132,-0.1565,-0.2861,-0.2024,-0.0141,0.3121,2.8684,18.6755,-41.868
2025-08-15T23:59:37.274Z,0.2742,-0.0151,-0.4596,-0.1318,-0.023,0.3478,2.9462,18.8493,-41.491
2025-08-15T23:59:37.284Z,0.3953,0.054,-0.6499,-0.0757,-0.0209,0.3593,3.0274,18.9424,-41.5235
2025-08-15T23:59:37.294Z,0.4844,0.0794,-0.7051,-0.0519,-0.0374,0.3514,3.2436,18.797,-41.3703
2025-08-15T23:59:37.304Z,0.5654,0.16,-0.7695,-0.0647,-0.0736,0.3264,3.1023,18.8759,-41.4412
2025-08-15T23:59:37.314Z,0.6246,0.3022,-0.765,-0.1126,-0.1124,0.301,2.974,19.0114,-41.6097
2025-08-15T23:59:37.324Z,0.704,0.3934,-0.6943,-0.1634,-0.1607,0.2731,2.8665,19.0289,-41.5538
2025-08-15T23:59:37.334Z,0.706,0.3872,-0.6362,-0.2171,-0.194,0.2491,2.8885,19.1534,-41.4457
2025-08-15T23:59:37.344Z,0.6336,0.3541,-0.4749,-0.2477,-0.2312,0.2198,3.0391,19.1979,-41.1094
2025-08-15T23:59:37.354Z,0.5873,0.2903,-0.3438,-0.2539,-0.2386,0.2022,2.8293,19.2798,-41.3486
2025-08-15T23:59:37.364Z,0.6271,0.2362,-0.2914,-0.2438,-0.1978,0.2007,2.8139,19.4365,-41.304
2025-08-15T23:59:37.374Z,0.6415,0.1873,-0.2895,-0.217,-0.1224,0.2089,2.7311,19.6109,-41.096
2025-08-15T23:59:37.383Z,0.583,0.1875,-0.2456,-0.1824,-0.0382,0.2224,2.7567,19.599,-41.0288
2025-08-15T23:59:37.394Z,0.565,0.2161,-0.2129,-0.1532,0.0448,0.2353,2.8294,19.6722,-40.8292
2025-08-15T23:59:37.404Z,0.6015,0.3238,-0.2478,-0.1302,0.1364,0.2503,2.7761,19.6477,-40.9467
2025-08-15T23:59:37.414Z,0.6328,0.4411,-0.3582,-0.102,0.2314,0.2648,2.898,19.6567,-40.9852
2025-08-15T23:59:37.424Z,0.609,0.4952,-0.4578,-0.0763,0.3067,0.2691,3.0664,19.6076,-40.7058
2025-08-15T23:59:37.433Z,0.5254,0.566,-0.49,-0.0586,0.3439,0.262,3.2111,19.7133,-40.776
2025-08-15T23:59:37.443Z,0.4114,0.6539,-0.4516,-0.0436,0.3361,0.2544,3.508,19.6711,-40.7654
2025-08-15T23:59:37.454Z,0.4245,0.7696,-0.4181,-0.029,0.3197,0.248,3.5462,19.6992,-40.9096
2025-08-15T23:59:37.464Z,0.4604,0.7942,-0.3861,0.0004,0.298,0.2371,3.5964,19.6325,-40.8095
2025-08-15T23:59:37.474Z,0.4705,0.7487,-0.3286,0.0342,0.2522,0.2203,3.7131,19.6464,-40.8094
2025-08-15T23:59:37.483Z,0.4456,0.7091,-0.2182,0.0518,0.1881,0.1851,3.8484,19.6907,-40.7401
2025-08-15T23:59:37.496Z,0.4401,0.7347,-0.008,0.0302,0.0294,0.1337,3.9817,19.7109,-40.6137
2025-08-15T23:59:37.504Z,0.4921,0.7685,0.2369,0.0302,0.0294,0.1337,4.2633,19.5788,-40.638
2025-08-15T23:59:37.514Z,0.5578,0.6879,0.468,0.0304,-0.023,0.1178,4.3469,19.5214,-40.8307
2025-08-15T23:59:37.526Z,0.6066,0.5201,0.6754,0.0664,-0.0487,0.0779,4.1258,19.6005,-40.4618
2025-08-15T23:59:37.533Z,0.6149,0.4151,0.9232,0.0664,-0.0487,0.0779,4.1263,19.5465,-40.5853
2025-08-15T23:59:37.546Z,0.6311,0.3876,1.0418,0.1953,0.1958,0.0459,4.1311,19.5639,-40.6612
2025-08-15T23:59:37.556Z,0.6128,0.3459,0.8765,0.2744,0.3799,0.0484,4.1716,19.2981,-40.8032
2025-08-15T23:59:37.564Z,0.5061,0.3056,0.6932,0.2744,0.3799,0.0484,4.2482,19.1967,-40.754
2025-08-15T23:59:37.575Z,0.2734,0.3743,0.5134,0.311,0.5219,0.0618,4.395,19.1943,-40.8647
2025-08-15T23:59:37.583Z,0.0604,0.4791,0.4174,0.311,0.5219,0.0618,4.4394,19.1805,-41.0235
2025-08-15T23:59:37.596Z,-0.0181,0.4825,0.4185,0.2178,0.2385,0.0183,4.6998,19.0874,-40.9755
2025-08-15T23:59:37.605Z,-0.0164,0.4544,0.4691,0.1442,0.0084,-0.0516,4.9566,18.9253,-41.0242
2025-08-15T23:59:37.616Z,0.0312,0.4281,0.7609,0.0816,-0.2376,-0.1302,5.0465,18.8005,-40.9408
2025-08-15T23:59:37.625Z,0.1221,0.3946,1.2666,0.0816,-0.2376,-0.1302,5.0028,18.6955,-40.9986
2025-08-15T23:59:37.633Z,0.3254,0.2449,1.5972,0.0607,-0.384,-0.204,4.8438,18.7028,-41.1969
2025-08-15T23:59:37.645Z,0.4698,-0.053,1.734,0.1089,-0.3778,-0.3167,4.5714,18.8566,-41.0822
2025-08-15T23:59:37.655Z,0.4153,-0.3255,1.9107,0.153,-0.2767,-0.3422,4.5218,18.6506,-41.0789
2025-08-15T23:59:37.666Z,0.3474,-0.5336,1.9414,0.153,-0.2767,-0.3422,4.3006,18.5903,-41.0656
2025-08-15T23:59:37.675Z,0.3287,-0.7851,1.7255,0.2821,0.134,-0.2973,4.1185,18.6225,-41.0505
2025-08-15T23:59:37.683Z,0.3397,-1.1287,1.361,0.2821,0.134,-0.2973,4.067,18.4457,-41.0278
2025-08-15T23:59:37.695Z,0.2873,-1.4025,0.8981,0.3574,0.6894,-0.1438,4.1766,18.242,-41.2524
2025-08-15T23:59:37.705Z,0.2484,-1.5204,0.3929,0.3595,0.9432,-0.0364,4.2323,18.1026,-41.2553
2025-08-15T23:59:37.715Z,0.23,-1.5429,-0.1641,0.3595,0.9432,-0.0364,4.4983,17.9031,-41.3443
2025-08-15T23:59:37.725Z,0.121,-1.4435,-0.6369,0.3477,1.1335,0.0565,4.8339,17.924,-41.2087
2025-08-15T23:59:37.733Z,0.0154,-1.2933,-0.975,0.335,1.2302,0.1283,5.2427,17.9563,-41.3431
2025-08-15T23:59:37.745Z,-0.0281,-1.1449,-1.3208,0.327,1.2272,0.2175,5.9599,17.7583,-41.2412
2025-08-15T23:59:37.755Z,-0.0871,-1.0012,-1.6396,0.3229,1.1181,0.2282,6.3572,17.8453,-41.0963
2025-08-15T23:59:37.765Z,-0.1991,-0.8632,-1.8391,0.3054,0.9209,0.2158,6.951,17.632,-41.0246
2025-08-15T23:59:37.775Z,-0.3164,-0.7433,-1.8675,0.2773,0.6398,0.1804,7.3196,17.401,-41.1525
2025-08-15T23:59:37.785Z,-0.4164,-0.6183,-1.814,0.2364,0.3009,0.1235,7.5465,17.2428,-40.9927
2025-08-15T23:59:37.795Z,-0.5367,-0.5312,-1.6367,0.1917,-0.0707,0.0458,7.664,17.3814,-41.0289
2025-08-15T23:59:37.805Z,-0.5992,-0.4915,-1.3473,0.1491,-0.4344,-0.0384,7.7787,17.1986,-40.9855
2025-08-15T23:59:37.815Z,-0.5416,-0.5228,-0.9867,0.1154,-0.7223,-0.1043,7.8164,17.1676,-41.0069
2025-08-15T23:59:37.824Z,-0.3968,-0.6578,-0.6468,0.1154,-0.7223,-0.1043,7.5072,17.1166,-41.203
2025-08-15T23:59:37.835Z,-0.2663,-0.8317,-0.3917,0.06,-0.9601,-0.2205,7.3535,17.0042,-41.2329
2025-08-15T23:59:37.845Z,-0.1876,-0.9705,-0.0679,0.0099,-0.945,-0.2647,6.8826,16.9056,-41.1554
2025-08-15T23:59:37.855Z,-0.1949,-1.0466,0.2478,-0.0506,-0.8306,-0.2945,6.5209,16.9966,-41.404
2025-08-15T23:59:37.865Z,-0.2273,-1.0298,0.399,-0.111,-0.6389,-0.307,6.1472,17.0574,-41.5424
2025-08-15T23:59:37.875Z,-0.2733,-0.998,0.5043,-0.1596,-0.38,-0.2959,5.7786,17.1858,-41.5513
2025-08-15T23:59:37.885Z,-0.3183,-0.9736,0.5077,-0.1918,-0.0986,-0.2501,5.6603,17.1932,-41.4277
2025-08-15T23:59:37.894Z,-0.3418,-0.9796,0.4412,-0.1969,0.1699,-0.1792,5.4525,17.2105,-41.4526
2025-08-15T23:59:37.905Z,-0.3295,-0.9776,0.3337,-0.1969,0.1699,-0.1792,5.3516,17.4758,-41.3519
2025-08-15T23:59:37.914Z,-0.3512,-0.9212,0.1787,-0.1396,0.4767,-0.034,5.351,17.5589,-41.2297
2025-08-15T23:59:37.924Z,-0.4517,-0.8247,0.0539,-0.0954,0.4645,0.0086,5.4973,17.533,-41.2514
2025-08-15T23:59:37.934Z,-0.5252,-0.6521,-0.0424,-0.0954,0.4645,0.0086,5.7592,17.5359,-41.2912
2025-08-15T23:59:37.944Z,-0.531,-0.4358,-0.1481,0.0087,0.3229,0.0271,5.952,17.4977,-41.1962
2025-08-15T23:59:37.955Z,-0.4817,-0.2987,-0.3084,0.059,0.2563,0.0004,6.0926,17.6462,-41.0984
2025-08-15T23:59:37.964Z,-0.3917,-0.2281,-0.5234,0.0942,0.2165,-0.042,6.0728,17.614,-41.0458
2025-08-15T23:59:37.974Z,-0.33,-0.156,-0.7263,0.097,0.201,-0.0965,6.2156,17.5533,-41.029
2025-08-15T23:59:37.984Z,-0.2816,-0.0665,-0.8729,0.0687,0.2007,-0.1296,6.346,17.3798,-41.1354
2025-08-15T23:59:37.995Z,-0.1967,0.0112,-0.9911,0.0299,0.2258,-0.1348,6.3333,17.4536,-41.2617
2025-08-15T23:59:38.005Z,-0.1361,0.0048,-1.2026,-0.0161,0.2447,-0.1174,6.4753,17.4633,-40.9883
2025-08-15T23:59:38.014Z,-0.0967,-0.0355,-1.3506,-0.0661,0.223,-0.0985,6.3774,17.6091,-40.9119
2025-08-15T23:59:38.025Z,-0.1275,-0.0056,-1.3557,-0.1118,0.1685,-0.0881,6.4941,17.2916,-40.9449
2025-08-15T23:59:38.035Z,-0.158,0.1139,-1.2473,-0.1346,0.1248,-0.0924,6.447,17.4258,-40.7892
2025-08-15T23:59:38.045Z,-0.0959,0.2311,-1.1451,-0.1329,0.0964,-0.1074,6.5656,17.53,-40.7843
2025-08-15T23:59:38.054Z,-0.008,0.2525,-1.1284,-0.1179,0.0827,-0.1275,6.6858,17.6314,-40.8362
2025-08-15T23:59:38.065Z,0.0517,0.2471,-1.0562,-0.0991,0.076,-0.1467,6.6174,17.688,-40.7121
2025-08-15T23:59:38.075Z,0.0065,0.3096,-0.9911,-0.0913,0.0674,-0.1687,6.653,17.7735,-40.6788
2025-08-15T23:59:38.084Z,-0.1306,0.4384,-0.8753,-0.0862,0.0579,-0.1653,6.5322,17.9895,-40.7237
2025-08-15T23:59:38.095Z,-0.1968,0.5805,-0.75,-0.0662,0.0707,-0.1475,6.759,17.9705,-40.6477
2025-08-15T23:59:38.105Z,-0.2107,0.5754,-0.7657,-0.0385,0.0749,-0.1189,6.826,18.016,-40.4337
2025-08-15T23:59:38.115Z,-0.2291,0.5133,-0.7326,-0.0071,0.0482,-0.0953,6.7857,17.9605,-40.4563
2025-08-15T23:59:38.125Z,-0.3326,0.5527,-0.6337,0.0232,-0.0076,-0.0737,6.7314,18.0778,-40.3652
2025-08-15T23:59:38.134Z,-0.4796,0.6741,-0.4828,0.0546,-0.0591,-0.0551,6.6756,18.1348,-40.6248
2025-08-15T23:59:38.145Z,-0.4696,0.8265,-0.2895,0.1035,-0.0885,-0.0532,6.7033,18.1451,-40.4922
2025-08-15T23:59:38.155Z,-0.3726,0.8543,-0.2102,0.1495,-0.1116,-0.0614,6.8754,18.1403,-40.6031
2025-08-15T23:59:38.165Z,-0.3833,0.7502,-0.1491,0.1669,-0.1581,-0.0752,6.5997,18.129,-40.6038
2025-08-15T23:59:38.174Z,-0.4591,0.72,0.0139,0.1658,-0.2206,-0.0733,6.7002,18.0593,-40.5309
2025-08-15T23:59:38.184Z,-0.5349,0.7533,0.1413,0.1454,-0.2756,-0.0652,6.5801,17.8545,-40.5822
2025-08-15T23:59:38.195Z,-0.4774,0.7589,0.2577,0.1256,-0.3071,-0.0668,6.4976,17.7863,-40.5142
2025-08-15T23:59:38.205Z,-0.3766,0.6934,0.3532,0.1099,-0.3218,-0.0722,6.386,18.0071,-40.5504
2025-08-15T23:59:38.214Z,-0.3394,0.6399,0.5082,0.0889,-0.3244,-0.0803,6.299,18.0047,-40.5769
2025-08-15T23:59:38.224Z,-0.3304,0.6235,0.6632,0.0741,-0.3063,-0.0869,6.0807,17.8413,-40.6309
2025-08-15T23:59:38.234Z,-0.2435,0.5599,0.759,0.0728,-0.2585,-0.0918,5.9937,17.7404,-40.6318
2025-08-15T23:59:38.244Z,-0.0732,0.4651,0.7984,0.0805,-0.2067,-0.0952,5.8718,17.8579,-40.9099
2025-08-15T23:59:38.254Z,0.0012,0.3519,0.8689,0.0893,-0.1598,-0.0935,5.8816,17.9065,-40.6965
2025-08-15T23:59:38.264Z,-0.0181,0.2799,0.9479,0.1057,-0.0842,-0.0746,5.7719,17.7838,-40.7253
2025-08-15T23:59:38.274Z,-0.1154,0.3354,0.7763,0.1119,-0.0271,-0.0444,5.6486,17.7436,-40.8784
2025-08-15T23:59:38.284Z,-0.1933,0.4454,0.6278,0.0965,-0.0831,-0.0181,5.5812,17.6263,-40.7527
2025-08-15T23:59:38.294Z,-0.238,0.4889,0.6884,0.0594,-0.2183,-0.0264,5.5228,17.8133,-40.9725
2025-08-15T23:59:38.304Z,-0.2272,0.5529,0.8245,0.006,-0.4034,-0.0748,5.4631,17.8014,-40.8109
2025-08-15T23:59:38.314Z,-0.0688,0.6276,1.1041,-0.05,-0.5621,-0.1595,5.298,17.5848,-40.9399
2025-08-15T23:59:38.325Z,0.2016,0.6261,1.3957,-0.0875,-0.6422,-0.2535,4.9863,17.8115,-40.871
2025-08-15T23:59:38.334Z,0.4969,0.4901,1.6526,-0.1035,-0.6319,-0.3217,4.7785,17.8301,-40.8509
2025-08-15T23:59:38.344Z,0.6967,0.234,1.8079,-0.0844,-0.5532,-0.3634,4.3575,17.8634,-40.8104
2025-08-15T23:59:38.354Z,0.7493,-0.0768,1.7892,-0.0619,-0.4557,-0.3821,4.3395,17.9231,-40.7968
2025-08-15T23:59:38.364Z,0.6739,-0.307,1.8301,-0.0232,-0.3711,-0.3718,4.0954,17.8321,-40.8636
2025-08-15T23:59:38.374Z,0.6061,-0.4708,1.7862,0.0362,-0.2735,-0.3422,3.9108,18.0238,-40.8426
2025-08-15T23:59:38.384Z,0.5651,-0.6782,1.6227,0.1138,-0.1757,-0.3008,3.4559,18.1088,-41.0859
2025-08-15T23:59:38.394Z,0.5799,-0.8477,1.4384,0.2136,-0.0685,-0.2541,3.292,18.1415,-41.089
2025-08-15T23:59:38.404Z,0.6523,-1.0151,1.1696,0.316,0.0589,-0.2172,3.4413,18.1785,-40.907
2025-08-15T23:59:38.414Z,0.7596,-1.2061,0.7756,0.4079,0.2225,-0.1814,3.3256,18.0048,-40.9462
2025-08-15T23:59:38.424Z,0.8761,-1.3548,0.2632,0.4765,0.4091,-0.1474,3.2241,17.8229,-40.9675
2025-08-15T23:59:38.434Z,0.9495,-1.4213,-0.3401,0.522,0.5805,-0.1068,3.4117,17.7061,-41.1066
2025-08-15T23:59:38.445Z,0.9565,-1.3955,-0.8726,0.544,0.7056,-0.0651,3.5673,17.6012,-41.1867
2025-08-15T23:59:38.454Z,0.9595,-1.3079,-1.3051,0.5524,0.7612,-0.026,3.9259,17.4165,-41.2168
2025-08-15T23:59:38.464Z,0.8898,-1.1772,-1.6746,0.5456,0.7291,0.0007,4.2555,17.1518,-41.3694
2025-08-15T23:59:38.474Z,0.8147,-0.9934,-1.8979,0.5246,0.6032,-0.0022,4.4614,17.0252,-41.4245
2025-08-15T23:59:38.485Z,0.8098,-0.876,-1.9555,0.5004,0.4116,-0.0379,4.7783,16.8258,-41.3372
2025-08-15T23:59:38.494Z,0.799,-0.7912,-1.9281,0.4535,0.1555,-0.119,4.9992,16.601,-41.4816
2025-08-15T23:59:38.504Z,0.7888,-0.7233,-1.7595,0.3814,-0.1411,-0.2397,5.0543,16.3138,-41.3193
2025-08-15T23:59:38.514Z,0.8648,-0.6754,-1.4527,0.2947,-0.4248,-0.3938,4.9975,16.2547,-41.4652
2025-08-15T23:59:38.524Z,1.0009,-0.6681,-1.211,0.1999,-0.6516,-0.561,4.7985,16.2216,-41.4465
2025-08-15T23:59:38.535Z,1.0825,-0.7263,-0.9893,0.1064,-0.8041,-0.7224,4.5039,16.125,-41.5234
2025-08-15T23:59:38.544Z,1.0633,-0.8522,-0.7381,0.0195,-0.8454,-0.8534,4.0296,16.2105,-41.5815
2025-08-15T23:59:38.554Z,0.949,-1.0841,-0.6512,-0.0673,-0.821,-0.9455,3.5708,16.1814,-41.5457
2025-08-15T23:59:38.563Z,0.7612,-1.3749,-0.5709,-0.1534,-0.743,-0.978,3.2272,16.2435,-41.6225
2025-08-15T23:59:38.575Z,0.4842,-1.5963,-0.5059,-0.2233,-0.6047,-0.9458,2.8448,16.6135,-41.5091
2025-08-15T23:59:38.584Z,0.2262,-1.6531,-0.5301,-0.274,-0.4363,-0.8645,2.3743,16.6229,-41.5434
2025-08-15T23:59:38.594Z,-0.0342,-1.6731,-0.5848,-0.3227,-0.2678,-0.7683,2.1361,16.7762,-41.7458
2025-08-15T23:59:38.604Z,-0.2378,-1.726,-0.5165,-0.3592,-0.0856,-0.6716,1.9513,16.8952,-41.5395
2025-08-15T23:59:38.613Z,-0.3643,-1.699,-0.4952,-0.3889,0.0856,-0.5618,1.7877,17.0518,-41.7001
2025-08-15T23:59:38.624Z,-0.4018,-1.5699,-0.5338,-0.4116,0.2257,-0.4561,1.6196,17.2811,-41.7003
2025-08-15T23:59:38.634Z,-0.3712,-1.3945,-0.5772,-0.4172,0.3096,-0.3704,1.7138,17.4899,-41.3885
2025-08-15T23:59:38.644Z,-0.3102,-1.2083,-0.5939,-0.4146,0.3377,-0.3169,1.7747,17.5686,-41.3616
2025-08-15T23:59:38.654Z,-0.2515,-1.0139,-0.5936,-0.395,0.3348,-0.2831,1.749,17.9627,-41.2977
2025-08-15T23:59:38.663Z,-0.0954,-0.8589,-0.6884,-0.3615,0.3111,-0.2452,1.68,18.0873,-41.0976
2025-08-15T23:59:38.674Z,0.0514,-0.7419,-0.8585,-0.3133,0.2524,-0.2208,1.8159,18.1364,-41.1119
2025-08-15T23:59:38.684Z,0.1212,-0.6407,-0.9494,-0.2737,0.1536,-0.2096,1.8856,18.2738,-40.9725
2025-08-15T23:59:38.694Z,0.085,-0.4707,-0.9188,-0.2308,0.0385,-0.2101,1.8752,18.5157,-40.8709
2025-08-15T23:59:38.704Z,0.1083,-0.2289,-0.8074,-0.1819,-0.052,-0.2054,1.8783,18.5364,-40.9505
2025-08-15T23:59:38.713Z,0.2227,-0.1231,-0.8546,-0.1429,-0.1274,-0.2122,2.0187,18.6611,-40.6374
2025-08-15T23:59:38.724Z,0.3207,-0.1542,-0.8715,-0.1319,-0.2002,-0.2201,1.8381,18.6829,-40.6942
2025-08-15T23:59:38.734Z,0.3224,-0.1376,-0.7759,-0.1489,-0.278,-0.2148,1.6906,18.8429,-40.7061
2025-08-15T23:59:38.744Z,0.2888,-0.0433,-0.6045,-0.1815,-0.3153,-0.1966,1.5469,18.9018,-40.754
2025-08-15T23:59:38.754Z,0.3636,0.0876,-0.4503,-0.2067,-0.2929,-0.1706,1.6307,19.0381,-40.6745
2025-08-15T23:59:38.763Z,0.523,0.1492,-0.3724,-0.2228,-0.2185,-0.1496,1.5059,19.0343,-40.4658
2025-08-15T23:59:38.774Z,0.6355,0.127,-0.3421,-0.2324,-0.1277,-0.131,1.3442,19.1024,-40.583
2025-08-15T23:59:38.783Z,0.6199,0.1702,-0.2623,-0.2346,-0.0407,-0.1114,1.1441,19.1934,-40.4542
2025-08-15T23:59:38.794Z,0.5804,0.3002,-0.188,-0.2276,0.0467,-0.0839,1.0113,19.3895,-40.4696
2025-08-15T23:59:38.804Z,0.5993,0.4852,-0.1498,-0.2015,0.1399,-0.0613,1.0705,19.4693,-40.5647
2025-08-15T23:59:38.813Z,0.6484,0.6058,-0.2214,-0.1744,0.1812,-0.044,1.1665,19.7804,-40.1706
2025-08-15T23:59:38.824Z,0.5966,0.6975,-0.226,-0.1556,0.1514,-0.0305,1.2318,19.6043,-40.1175
2025-08-15T23:59:38.834Z,0.5348,0.7905,-0.1379,-0.1486,0.093,-0.0214,1.1821,19.7449,-40.2357
2025-08-15T23:59:38.844Z,0.5618,0.8909,-0.1292,-0.1384,0.0211,-0.0089,1.1178,19.8207,-40.2748
2025-08-15T23:59:38.854Z,0.5969,0.9907,-0.0905,-0.1098,-0.0498,0.0046,1.214,19.8178,-40.167
2025-08-15T23:59:38.864Z,0.6169,1.0306,0.0028,-0.068,-0.1153,0.0092,1.3008,20.0016,-40.0258
2025-08-15T23:59:38.874Z,0.6171,1.0148,0.0839,-0.0273,-0.1585,0.0052,1.2142,19.8813,-40.1504
2025-08-15T23:59:38.884Z,0.5885,1.0186,0.1444,0.0107,-0.1931,0.0075,1.2536,19.8941,-40.0175
2025-08-15T23:59:38.894Z,0.5776,1.0272,0.2944,0.0482,-0.22,0.005,1.2242,19.7525,-40.1247
2025-08-15T23:59:38.904Z,0.5732,0.973,0.4006,0.0839,-0.2327,0.0048,1.1883,19.7821,-40.2586
2025-08-15T23:59:38.913Z,0.5997,0.8438,0.4417,0.1036,-0.2477,0.0053,1.1754,19.7616,-40.1878
2025-08-15T23:59:38.926Z,0.5795,0.7029,0.6865,0.1013,-0.267,0.0002,0.979,19.7382,-40.2084
2025-08-15T23:59:38.934Z,0.5795,0.7029,0.6865,0.098,-0.2765,-0.0065,0.979,19.7382,-40.2084
2025-08-15T23:59:38.944Z,0.623,0.6804,0.8529,0.1018,-0.2471,-0.0182,0.7669,19.764,-40.2673
2025-08-15T23:59:38.954Z,0.6155,0.6111,0.9048,0.1144,-0.1628,-0.0304,0.7914,19.7455,-40.1961
2025-08-15T23:59:38.963Z,0.4712,0.5864,0.8267,0.1102,-0.0764,-0.034,0.8324,19.8052,-40.159
2025-08-15T23:59:38.977Z,-0.0317,0.6883,0.8513,0.0691,-0.0642,-0.0246,0.5011,19.8813,-40.0976
2025-08-15T23:59:38.984Z,-0.0317,0.6883,0.8513,0.0032,-0.1363,-0.0087,0.5011,19.8813,-40.0976
2025-08-15T23:59:38.997Z,-0.1091,0.4264,1.2193,-0.0659,-0.275,-0.0043,0.3613,19.9102,-40.2749
2025-08-15T23:59:39.003Z,-0.1091,0.4264,1.2193,-0.1257,-0.4058,-0.0247,0.3613,19.9102,-40.2749
2025-08-15T23:59:39.013Z,-0.0418,0.1835,1.4715,-0.1599,-0.4639,-0.0398,0.4544,20.0474,-39.8614
2025-08-15T23:59:39.026Z,-0.0744,0.1407,1.9035,-0.1596,-0.4654,-0.0441,0.0795,20.0982,-40.1819
2025-08-15T23:59:39.034Z,-0.0744,0.1407,1.9035,-0.115,-0.3852,-0.0295,0.0795,20.0982,-40.1819
2025-08-15T23:59:39.048Z,-0.2011,-0.2722,1.7153,-0.0344,-0.2576,0.0068,-0.1637,20.3738,-40.0307
2025-08-15T23:59:39.054Z,-0.2011,-0.2722,1.7153,0.0655,-0.1108,0.0657,-0.1637,20.3738,-40.0307
2025-08-15T23:59:39.063Z,-0.2788,-0.4966,1.4756,0.16,0.0495,0.14,-0.1677,20.5209,-39.9101
2025-08-15T23:59:39.077Z,-0.3517,-0.7644,0.8666,0.2192,0.1826,0.2096,-0.1469,20.2638,-40.0993
2025-08-15T23:59:39.084Z,-0.3517,-0.7644,0.8666,0.2385,0.2705,0.261,-0.1469,20.2638,-40.0993
2025-08-15T23:59:39.096Z,-0.4623,-0.7748,0.2678,0.2322,0.3439,0.2952,0.2255,19.9772,-40.0973
2025-08-15T23:59:39.106Z,-0.4668,-0.7932,-0.0752,0.2225,0.4113,0.3285,0.5366,19.8995,-39.8308
2025-08-15T23:59:39.113Z,-0.4668,-0.7932,-0.0752,0.223,0.4799,0.3589,0.5366,19.8995,-39.8308
2025-08-15T23:59:39.126Z,-0.4078,-1.0507,-0.8075,0.2333,0.5351,0.391,0.9787,19.7505,-40.0584
2025-08-15T23:59:39.136Z,-0.4728,-1.1918,-1.1258,0.2533,0.5546,0.4302,1.1546,19.7398,-40.258
2025-08-15T23:59:39.146Z,-0.5955,-1.258,-1.3307,0.2725,0.5211,0.4573,1.4675,19.6851,-40.1464
2025-08-15T23:59:39.157Z,-0.716,-1.2349,-1.4731,0.2813,0.4421,0.4731,1.9267,19.5621,-39.9923
2025-08-15T23:59:39.163Z,-0.716,-1.2349,-1.4731,0.2771,0.3236,0.4787,1.9267,19.5621,-39.9923
2025-08-15T23:59:39.176Z,-0.9384,-1.0974,-1.5618,0.2576,0.1711,0.4648,2.1118,19.3708,-40.0333
2025-08-15T23:59:39.186Z,-1.066,-1.0104,-1.4711,0.2126,-0.0123,0.4389,2.16,19.2855,-40.1151
2025-08-15T23:59:39.196Z,-1.146,-0.9157,-1.1857,0.1381,-0.2335,0.4056,2.1949,19.1554,-40.3743
2025-08-15T23:59:39.206Z,-1.1238,-0.8479,-0.8335,0.0594,-0.4431,0.3711,2.2578,19.1718,-40.2175
2025-08-15T23:59:39.215Z,-1.0211,-0.8562,-0.504,-0.0005,-0.6035,0.3474,2.1451,19.0097,-40.2688
2025-08-15T23:59:39.227Z,-0.8771,-1.0225,-0.085,-0.0388,-0.73,0.3176,1.9551,19.1392,-40.4471
2025-08-15T23:59:39.236Z,-0.7189,-1.1741,0.4153,-0.0651,-0.832,0.2669,1.7075,18.9151,-40.4376
2025-08-15T23:59:39.245Z,-0.6018,-1.2735,0.9056,-0.0848,-0.9005,0.2017,1.388,18.9795,-40.4275
2025-08-15T23:59:39.256Z,-0.5797,-1.3008,1.3651,-0.0986,-0.9345,0.1369,1.1573,19.0422,-40.1191
2025-08-15T23:59:39.266Z,-0.5808,-1.2892,1.8492,-0.0948,-0.9334,0.0766,0.8368,19.0784,-40.2321
2025-08-15T23:59:39.275Z,-0.5327,-1.2948,2.1608,-0.065,-0.8501,0.0325,0.5778,19.0838,-40.0673
2025-08-15T23:59:39.286Z,-0.4338,-1.4296,2.1661,0.0166,-0.648,0.0121,0.3548,19.3031,-40.4252
2025-08-15T23:59:39.295Z,-0.3513,-1.6625,1.9409,0.1205,-0.3569,0.021,0.1081,19.3459,-40.4807
2025-08-15T23:59:39.307Z,-0.4169,-1.8717,1.5171,0.2249,-0.0184,0.0619,0.1398,19.1147,-40.325
2025-08-15T23:59:39.315Z,-0.5701,-1.9729,0.9172,0.2987,0.3242,0.1355,0.2776,18.9986,-40.2732
2025-08-15T23:59:39.325Z,-0.747,-1.9238,0.2731,0.3096,0.6131,0.2301,0.4149,18.981,-40.3932
2025-08-15T23:59:39.335Z,-0.9034,-1.7419,-0.2043,0.2724,0.8147,0.3082,0.7859,18.8553,-40.3063
2025-08-15T23:59:39.346Z,-0.9115,-1.5169,-0.6481,0.2035,0.9524,0.3619,1.0049,18.8129,-40.259
2025-08-15T23:59:39.355Z,-0.7599,-1.3238,-1.0639,0.1229,1.0474,0.4019,1.5501,18.794,-40.1597
2025-08-15T23:59:39.365Z,-0.5785,-1.1881,-1.3829,0.0387,1.09,0.4183,1.9961,18.7512,-40.2536
2025-08-15T23:59:39.375Z,-0.5077,-1.0787,-1.5509,-0.0373,1.0592,0.4061,2.4147,18.8622,-40.1382
2025-08-15T23:59:39.387Z,-0.5946,-0.9034,-1.5939,-0.1116,0.9491,0.3576,2.8578,18.898,-40.0322
2025-08-15T23:59:39.395Z,-0.6685,-0.6861,-1.5211,-0.1735,0.7628,0.2869,3.1859,18.9159,-40.0246
2025-08-15T23:59:39.405Z,-0.6531,-0.5863,-1.5196,-0.2117,0.5473,0.2149,3.522,19.0934,-39.9288
2025-08-15T23:59:39.415Z,-0.595,-0.5812,-1.4491,-0.2283,0.3183,0.14,3.7667,19.157,-39.6762
2025-08-15T23:59:39.426Z,-0.6293,-0.5882,-1.2471,-0.2354,0.0953,0.063,3.9153,19.1779,-39.6909
2025-08-15T23:59:39.435Z,-0.6364,-0.5336,-0.9843,-0.2264,-0.0858,0.0097,3.8392,19.1388,-39.831
2025-08-15T23:59:39.445Z,-0.5524,-0.5433,-0.8666,-0.1975,-0.1742,-0.0131,3.8423,19.1264,-39.8605
2025-08-15T23:59:39.455Z,-0.5191,-0.6369,-0.7834,-0.1621,-0.1882,-0.0219,3.7776,19.1985,-39.7564
2025-08-15T23:59:39.466Z,-0.6004,-0.7133,-0.573,-0.1376,-0.1848,-0.0194,3.6887,19.3968,-39.7442
2025-08-15T23:59:39.475Z,-0.7207,-0.6763,-0.372,-0.1249,-0.1681,-0.0069,3.6871,19.3884,-39.7106
2025-08-15T23:59:39.485Z,-0.765,-0.5685,-0.2448,-0.1165,-0.1178,0.0278,3.6653,19.4286,-39.7971
2025-08-15T23:59:39.495Z,-0.7447,-0.5155,-0.232,-0.0924,-0.0236,0.0763,3.6528,19.3069,-39.7756
2025-08-15T23:59:39.505Z,-0.7259,-0.5097,-0.2369,-0.0594,0.0856,0.1166,3.6101,19.4423,-39.6548
2025-08-15T23:59:39.514Z,-0.8112,-0.3966,-0.1997,-0.0387,0.1718,0.1496,3.5969,19.5164,-39.7256
2025-08-15T23:59:39.525Z,-0.8536,-0.2147,-0.2038,-0.0333,0.2158,0.1742,3.8199,19.5513,-39.4874
2025-08-15T23:59:39.536Z,-0.8389,-0.0859,-0.2753,-0.0399,0.2309,0.1772,3.8039,19.4608,-39.594
2025-08-15T23:59:39.544Z,-0.8186,-0.0348,-0.2881,-0.0508,0.2207,0.1764,3.9758,19.5046,-39.4802
2025-08-15T23:59:39.555Z,-0.8025,0.0381,-0.3244,-0.0614,0.1911,0.1648,3.9662,19.5926,-39.5742
2025-08-15T23:59:39.564Z,-0.8034,0.1703,-0.3471,-0.0776,0.1683,0.1503,4.0586,19.5882,-39.4541
2025-08-15T23:59:39.576Z,-0.7974,0.3216,-0.3082,-0.0883,0.1371,0.1386,4.1807,19.5904,-39.4438
2025-08-15T23:59:39.585Z,-0.7768,0.3955,-0.263,-0.0963,0.095,0.1256,4.2556,19.6813,-39.4498
2025-08-15T23:59:39.594Z,-0.7779,0.3996,-0.1823,-0.0998,0.0485,0.1103,4.4601,19.6326,-39.2863
2025-08-15T23:59:39.606Z,-0.7464,0.3984,-0.1316,-0.1023,0.0069,0.0926,4.568,19.6603,-39.1552
2025-08-15T23:59:39.614Z,-0.7299,0.4413,-0.0387,-0.1117,-0.0343,0.087,4.6173,19.6027,-39.2136
2025-08-15T23:59:39.624Z,-0.7228,0.5011,0.0883,-0.124,-0.0659,0.0896,4.4933,19.5387,-39.1718
2025-08-15T23:59:39.634Z,-0.685,0.5045,0.2396,-0.128,-0.0983,0.0935,4.4947,19.6568,-39.3014
2025-08-15T23:59:39.644Z,-0.6729,0.4476,0.3996,-0.1204,-0.1181,0.086,4.5436,19.6621,-39.2711
2025-08-15T23:59:39.655Z,-0.7019,0.3942,0.5249,-0.1077,-0.1306,0.0746,4.4925,19.6723,-39.1932
2025-08-15T23:59:39.664Z,-0.6949,0.3656,0.6514,-0.0999,-0.1356,0.0765,4.5583,19.7426,-38.933
2025-08-15T23:59:39.674Z,-0.6313,0.3239,0.7821,-0.0927,-0.1227,0.0954,4.5427,19.7673,-39.233
2025-08-15T23:59:39.686Z,-0.5921,0.2495,0.8835,-0.0746,-0.1024,0.1192,4.5165,19.8255,-39.2619
2025-08-15T23:59:39.694Z,-0.6179,0.163,0.9852,-0.0442,-0.0782,0.1465,4.513,19.7163,-39.179
2025-08-15T23:59:39.704Z,-0.6018,0.0915,1.0502,0.0024,-0.0536,0.1879,4.4916,19.6964,-39.2145
2025-08-15T23:59:39.714Z,-0.5207,0.027,1.0087,0.0685,-0.0038,0.2365,4.657,19.7175,-39.1365
2025-08-15T23:59:39.724Z,-0.4711,-0.017,0.8167,0.1503,0.0866,0.2895,4.6962,19.6988,-39.1421
2025-08-15T23:59:39.734Z,-0.524,0.0853,0.4564,0.2245,0.1896,0.3485,4.7976,19.5891,-39.3101
2025-08-15T23:59:39.744Z,-0.6618,0.2733,0.3398,0.2644,0.1844,0.3921,4.7775,19.4953,-39.3695
2025-08-15T23:59:39.754Z,-0.7204,0.4512,0.5017,0.255,0.0306,0.4147,4.8198,19.3901,-39.3999
2025-08-15T23:59:39.765Z,-0.5498,0.5419,0.6021,0.2331,-0.1775,0.4071,5.0199,19.2695,-39.0099
2025-08-15T23:59:39.774Z,-0.3114,0.5053,0.7108,0.2091,-0.3693,0.3535,4.8641,19.1404,-39.1814
2025-08-15T23:59:39.784Z,-0.1251,0.4191,0.8918,0.1908,-0.5117,0.2775,4.605,18.9701,-39.2746
2025-08-15T23:59:39.794Z,-0.0428,0.2678,1.0233,0.1798,-0.5844,0.2195,4.5078,18.9245,-39.2967
2025-08-15T23:59:39.804Z,0.0341,0.1112,1.0125,0.1848,-0.5426,0.1975,4.3177,18.7974,-39.4348
2025-08-15T23:59:39.814Z,0.0624,-0.0638,0.8304,0.2082,-0.4197,0.1985,4.2645,18.7138,-39.4537
2025-08-15T23:59:39.824Z,0.0143,-0.2409,0.6161,0.227,-0.2624,0.2188,4.1648,18.604,-39.4403
2025-08-15T23:59:39.834Z,-0.1264,-0.3049,0.4459,0.2231,-0.1285,0.2431,3.9548,18.6717,-39.477
2025-08-15T23:59:39.844Z,-0.2192,-0.2514,0.3251,0.1811,-0.0407,0.2633,4.0906,18.4402,-39.5297
2025-08-15T23:59:39.854Z,-0.1935,-0.2295,0.2103,0.1129,0.0039,0.2687,4.1609,18.4709,-39.5022
2025-08-15T23:59:39.863Z,-0.093,-0.3499,0.0949,0.0362,0.0262,0.2478,4.3018,18.4557,-39.1768
2025-08-15T23:59:39.874Z,-0.0681,-0.4418,0.0913,-0.0536,0.042,0.2102,4.2601,18.4168,-39.287
2025-08-15T23:59:39.884Z,-0.0504,-0.4714,0.115,-0.1221,0.0717,0.1874,4.3295,18.2941,-39.1817
2025-08-15T23:59:39.894Z,-0.084,-0.5694,0.1017,-0.155,0.1257,0.1741,4.5218,18.2871,-39.4427
2025-08-15T23:59:39.904Z,-0.2177,-0.7809,0.053,-0.1556,0.1978,0.1718,4.6173,18.4345,-39.2244
2025-08-15T23:59:39.914Z,-0.4172,-0.982,-0.0371,-0.1368,0.2759,0.1798,4.8909,18.5069,-38.924
2025-08-15T23:59:39.924Z,-0.6008,-1.1259,-0.1983,-0.1161,0.3609,0.2169,5.041,18.5143,-38.976
2025-08-15T23:59:39.934Z,-0.7689,-1.249,-0.3849,-0.0833,0.4442,0.2935,5.1686,18.5898,-39.0457
2025-08-15T23:59:39.944Z,-0.9426,-1.3449,-0.5495,-0.0423,0.5202,0.3953,5.471,18.4802,-38.8922
2025-08-15T23:59:39.954Z,-1.0701,-1.4159,-0.689,0.0061,0.572,0.5147,5.7594,18.4532,-38.6863
2025-08-15T23:59:39.964Z,-1.1079,-1.4379,-0.8302,0.0697,0.6076,0.6312,6.1493,18.2998,-38.6701
2025-08-15T23:59:39.974Z,-1.1139,-1.3945,-1.0018,0.1375,0.6327,0.7306,6.3934,18.2769,-38.6897
2025-08-15T23:59:39.984Z,-1.2001,-1.3108,-1.0807,0.1965,0.6265,0.8058,6.736,17.993,-38.7948
2025-08-15T23:59:39.994Z,-1.2834,-1.192,-1.0457,0.234,0.5643,0.8681,7.0653,17.9191,-38.8907
2025-08-15T23:59:40.004Z,-1.2828,-1.1223,-1.0096,0.2538,0.469,0.9182,7.4138,17.9273,-38.8006
2025-08-15T23:59:40.014Z,-1.2483,-1.0989,-0.9239,0.2514,0.3487,0.9584,7.7703,17.6556,-38.7144
2025-08-15T23:59:40.024Z,-1.1693,-1.0892,-0.7414,0.2167,0.2011,0.9904,7.951,17.473,-38.8521
2025-08-15T23:59:40.034Z,-1.0841,-1.0874,-0.5122,0.1672,0.0719,1.0093,8.1501,17.2372,-39.1397
2025-08-15T23:59:40.044Z,-0.9587,-1.1213,-0.2553,0.1055,-0.0404,1.0246,8.2052,16.9568,-38.9672
2025-08-15T23:59:40.054Z,-0.7996,-1.2275,0.0475,0.0381,-0.1131,1.032,8.2877,16.7359,-38.9843
2025-08-15T23:59:40.064Z,-0.6865,-1.3792,0.3105,-0.022,-0.118,1.0349,8.408,16.9883,-38.9191
2025-08-15T23:59:40.074Z,-0.6161,-1.5384,0.5552,-0.0858,-0.072,1.0381,8.38,16.8584,-38.9438
2025-08-15T23:59:40.083Z,-0.637,-1.6433,0.7235,-0.1458,0.0157,1.0585,8.5236,16.8742,-38.8588
2025-08-15T23:59:40.094Z,-0.7786,-1.6973,0.8419,-0.2024,0.1334,1.0993,8.7928,16.7638,-38.8195
2025-08-15T23:59:40.104Z,-0.9482,-1.7502,0.886,-0.2524,0.2655,1.1747,8.8753,16.8178,-38.7138
2025-08-15T23:59:40.114Z,-1.1201,-1.7959,0.8507,-0.2775,0.4102,1.2753,9.3539,16.7568,-38.6123
2025-08-15T23:59:40.124Z,-1.2575,-1.8262,0.7687,-0.2799,0.5601,1.3934,9.8757,16.5164,-38.5768
2025-08-15T23:59:40.133Z,-1.2553,-1.8836,0.6377,-0.2548,0.6932,1.5205,10.2105,16.4949,-38.4502
2025-08-15T23:59:40.144Z,-1.1515,-1.8935,0.5076,-0.2111,0.7973,1.6301,10.7909,16.3578,-38.1597
2025-08-15T23:59:40.154Z,-1.0138,-1.8081,0.332,-0.1693,0.8656,1.7165,11.3455,16.1478,-37.919
2025-08-15T23:59:40.164Z,-0.8877,-1.6466,0.1669,-0.1426,0.8851,1.7873,11.7613,16.0137,-37.8915
2025-08-15T23:59:40.174Z,-0.7639,-1.5199,0.0793,-0.1289,0.8455,1.8361,12.1947,15.8382,-37.8344
2025-08-15T23:59:40.183Z,-0.5991,-1.4675,-0.0036,-0.1263,0.7825,1.863,12.7593,15.4793,-37.7463
2025-08-15T23:59:40.196Z,-0.4351,-1.4059,-0.0629,-0.138,0.6628,1.8689,13.2636,15.1584,-37.6448
2025-08-15T23:59:40.204Z,-0.288,-1.366,-0.1048,-0.138,0.6628,1.8689,13.7175,14.8902,-37.5225
2025-08-15T23:59:40.213Z,-0.216,-1.2865,-0.1039,-0.1495,0.6173,1.8676,14.2239,14.753,-37.4399
2025-08-15T23:59:40.227Z,-0.1778,-1.2218,0.0014,-0.1674,0.5674,1.8653,14.7247,14.4278,-36.9659
2025-08-15T23:59:40.233Z,-0.0792,-1.2001,0.0428,-0.1674,0.5674,1.8653,14.9867,14.2334,-37.0605
2025-08-15T23:59:40.246Z,-0.0089,-1.2626,-0.0087,-0.1643,0.6131,1.8557,15.3944,14.0366,-37.0814
2025-08-15T23:59:40.254Z,-0.0219,-1.3212,0.0067,-0.1643,0.6131,1.8557,15.9164,13.8339,-36.7737
2025-08-15T23:59:40.264Z,-0.078,-1.2807,0.0586,-0.182,0.6254,1.852,16.3422,13.5475,-36.5224
2025-08-15T23:59:40.276Z,-0.1132,-1.1945,0.1471,-0.2058,0.6274,1.8476,16.8399,13.0668,-36.4864
2025-08-15T23:59:40.283Z,-0.1373,-1.1908,0.2321,-0.2058,0.6274,1.8476,17.1702,12.7307,-36.468
2025-08-15T23:59:40.295Z,-0.191,-1.2213,0.3247,-0.2052,0.6147,1.8632,17.5408,12.6113,-36.249
2025-08-15T23:59:40.306Z,-0.2553,-1.2457,0.4843,-0.1707,0.6029,1.8905,17.9893,12.1968,-36.0893
2025-08-15T23:59:40.314Z,-0.2911,-1.2503,0.5784,-0.1707,0.6029,1.8905,18.5836,11.906,-35.8627
2025-08-15T23:59:40.326Z,-0.2964,-1.2321,0.6178,-0.0579,0.6281,1.9418,18.8539,11.5083,-35.5266
2025-08-15T23:59:40.333Z,-0.2557,-1.2604,0.6541,-0.0579,0.6281,1.9418,19.1085,11.2897,-35.4787
2025-08-15T23:59:40.346Z,-0.1999,-1.32,0.6102,0.0547,0.6685,1.9764,19.5352,10.8482,-35.4194
2025-08-15T23:59:40.355Z,-0.1404,-1.3637,0.5329,0.0735,0.6868,1.981,19.8912,10.2808,-35.3303
2025-08-15T23:59:40.365Z,-0.0682,-1.3543,0.4877,0.0637,0.7099,1.9719,20.4092,9.749,-35.1848
2025-08-15T23:59:40.375Z,0.0556,-1.2705,0.4541,0.0298,0.7459,1.9604,20.7024,9.3479,-35.0505
2025-08-15T23:59:40.383Z,0.1668,-1.1883,0.4522,0.0298,0.7459,1.9604,20.9353,8.9054,-34.9342
2025-08-15T23:59:40.395Z,0.2698,-1.1305,0.4972,-0.0542,0.7966,1.9209,21.3464,8.328,-34.8508
2025-08-15T23:59:40.405Z,0.3533,-1.1002,0.5222,-0.0767,0.8256,1.9029,21.8239,7.8339,-34.5479
2025-08-15T23:59:40.415Z,0.3842,-1.0879,0.514,-0.0846,0.8389,1.8898,22.1466,7.4413,-34.2592
2025-08-15T23:59:40.423Z,0.3732,-1.0744,0.5954,-0.0846,0.8389,1.8898,22.6367,6.9751,-34.0395
2025-08-15T23:59:40.433Z,0.3483,-1.0534,0.5941,-0.0663,0.8475,1.8883,23.0325,6.5537,-33.9594
2025-08-15T23:59:40.445Z,0.3773,-1.0502,0.5174,0.0352,0.883,1.9098,23.3136,6.065,-33.528
2025-08-15T23:59:40.455Z,0.4157,-1.0636,0.3393,0.0871,0.9023,1.901,23.7366,5.7205,-33.4272
2025-08-15T23:59:40.465Z,0.4274,-1.0133,0.1782,0.117,0.8921,1.8816,23.9996,5.2067,-33.1245
2025-08-15T23:59:40.475Z,0.4446,-0.9356,0.0766,0.119,0.8662,1.8491,24.4597,4.6437,-32.8925
2025-08-15T23:59:40.485Z,0.4824,-0.8286,0.0037,0.1024,0.8327,1.814,24.6467,4.1437,-32.8066
2025-08-15T23:59:40.495Z,0.5243,-0.7564,-0.0093,0.0733,0.8039,1.7816,24.9449,3.5689,-32.5521
2025-08-15T23:59:40.505Z,0.5588,-0.6934,0.0144,0.0446,0.772,1.7472,25.2073,3.193,-32.4584
2025-08-15T23:59:40.516Z,0.5532,-0.6721,0.0697,0.0179,0.7357,1.7173,25.4208,2.7966,-32.3325
2025-08-15T23:59:40.525Z,0.5359,-0.7005,0.1819,-0.0023,0.7138,1.6932,25.7696,2.2155,-32.1161
2025-08-15T23:59:40.535Z,0.4929,-0.7224,0.2785,-0.0045,0.7021,1.6861,25.9031,1.8832,-32.0288
2025-08-15T23:59:40.545Z,0.462,-0.7791,0.364,0.0094,0.7003,1.6844,26.1512,1.3067,-31.8629
2025-08-15T23:59:40.555Z,0.444,-0.8649,0.435,0.0255,0.6958,1.6784,26.3348,0.7659,-31.6209
2025-08-15T23:59:40.564Z,0.4495,-0.9697,0.5182,0.0469,0.6837,1.6762,26.5806,0.3648,-31.4096
2025-08-15T23:59:40.575Z,0.4166,-1.0183,0.5958,0.0591,0.6653,1.6767,26.8383,-0.0353,-31.1954
2025-08-15T23:59:40.584Z,0.3407,-1.0512,0.6514,0.0591,0.6653,1.6767,26.9031,-0.5537,-31.0579
2025-08-15T23:59:40.594Z,0.3074,-1.0981,0.6593,0.1034,0.6627,1.6904,27.0744,-1.0567,-30.8947
2025-08-15T23:59:40.605Z,0.262,-1.1166,0.6534,0.1335,0.6785,1.6954,27.2114,-1.6942,-30.7281
2025-08-15T23:59:40.614Z,0.2399,-1.1137,0.6011,0.1335,0.6785,1.6954,27.3577,-2.0523,-30.4768
2025-08-15T23:59:40.625Z,0.182,-1.1127,0.4901,0.175,0.6649,1.6987,27.5175,-2.5698,-30.0713
2025-08-15T23:59:40.634Z,0.0977,-1.0753,0.3954,0.1703,0.6236,1.6976,27.5299,-3.0981,-30.1791
2025-08-15T23:59:40.644Z,0.0245,-1.0111,0.3046,0.1626,0.5901,1.6767,27.6022,-3.6237,-29.8104
2025-08-15T23:59:40.655Z,-0.011,-0.9567,0.1869,0.1452,0.5759,1.6506,27.6977,-4.1801,-29.63
2025-08-15T23:59:40.664Z,-0.0241,-0.8819,0.0688,0.1169,0.5883,1.6169,27.7651,-4.7579,-29.5553
2025-08-15T23:59:40.675Z,-0.0651,-0.8068,0.0103,0.096,0.6267,1.5889,27.8429,-5.202,-29.1883
2025-08-15T23:59:40.685Z,-0.1945,-0.7459,-0.0747,0.0806,0.6874,1.5716,27.7773,-5.7719,-29.2583
2025-08-15T23:59:40.695Z,-0.3372,-0.7496,-0.1811,0.0683,0.7419,1.5606,27.9256,-6.2846,-28.9832
2025-08-15T23:59:40.705Z,-0.4898,-0.7938,-0.324,0.0509,0.7676,1.5634,28.0882,-6.7668,-28.6017
2025-08-15T23:59:40.714Z,-0.6963,-0.8013,-0.3589,0.0339,0.7581,1.5696,28.0818,-7.1727,-28.5627
2025-08-15T23:59:40.725Z,-0.8363,-0.7649,-0.3894,0.0238,0.7296,1.581,28.363,-7.6245,-27.9906
2025-08-15T23:59:40.734Z,-0.9028,-0.7441,-0.4217,0.0341,0.6892,1.5826,28.3814,-8.2979,-27.9615
2025-08-15T23:59:40.745Z,-0.9171,-0.7361,-0.3514,0.0638,0.6673,1.5711,28.3087,-8.7235,-27.8528
2025-08-15T23:59:40.754Z,-0.9312,-0.7324,-0.3344,0.1029,0.6587,1.5576,28.3462,-9.3032,-27.7862
2025-08-15T23:59:40.764Z,-0.9703,-0.7359,-0.3716,0.1329,0.6497,1.5458,28.4094,-9.8319,-27.3494
2025-08-15T23:59:40.775Z,-1.0622,-0.7293,-0.3953,0.1568,0.6545,1.5357,28.474,-10.2622,-26.9988
2025-08-15T23:59:40.784Z,-1.1336,-0.7463,-0.4483,0.1602,0.6841,1.5314,28.488,-10.8257,-26.9888
2025-08-15T23:59:40.795Z,-1.2258,-0.7333,-0.5361,0.1452,0.7184,1.536,28.3703,-11.269,-26.9541
2025-08-15T23:59:40.805Z,-1.33,-0.7273,-0.605,0.1058,0.7688,1.5413,28.3619,-11.9213,-26.6625
2025-08-15T23:59:40.816Z,-1.42,-0.7218,-0.6656,0.049,0.8251,1.549,28.3602,-12.3596,-26.2899
2025-08-15T23:59:40.825Z,-1.5093,-0.6837,-0.701,-0.0196,0.8543,1.5598,28.4843,-12.6931,-25.9439
2025-08-15T23:59:40.835Z,-1.5813,-0.6304,-0.6345,-0.0734,0.8617,1.571,28.4099,-13.1472,-25.7913
2025-08-15T23:59:40.845Z,-1.6066,-0.5577,-0.5051,-0.1064,0.8626,1.574,28.2358,-13.6446,-25.6221
2025-08-15T23:59:40.855Z,-1.6378,-0.5023,-0.3687,-0.1064,0.8626,1.574,28.2486,-13.8363,-25.3339
2025-08-15T23:59:40.865Z,-1.6781,-0.5113,-0.2333,-0.0778,0.8425,1.5945,28.1078,-14.3748,-25.162
2025-08-15T23:59:40.875Z,-1.7081,-0.5516,-0.1324,-0.0395,0.822,1.6125,28.1477,-14.8405,-24.9664
2025-08-15T23:59:40.885Z,-1.729,-0.5875,-0.0956,-0.0005,0.7976,1.6406,28.1477,-14.8405,-24.9664
2025-08-15T23:59:40.895Z,-1.7487,-0.5823,-0.0493,0.0284,0.7692,1.6697,27.924,-15.393,-24.8058
2025-08-15T23:59:40.905Z,-1.7433,-0.5838,-0.0291,0.0389,0.7388,1.7003,27.8464,-16.0694,-24.7184
2025-08-15T23:59:40.914Z,-1.7017,-0.566,0.0183,0.0345,0.7023,1.7225,27.7106,-16.6037,-24.5467
2025-08-15T23:59:40.924Z,-1.6295,-0.5231,0.0922,0.0284,0.6599,1.7373,27.5983,-16.8889,-24.1754
2025-08-15T23:59:40.934Z,-1.4911,-0.4733,0.2274,0.0288,0.63,1.7267,27.7124,-17.4633,-23.7908
2025-08-15T23:59:40.944Z,-1.3098,-0.4247,0.3767,0.0317,0.6002,1.7064,27.3309,-17.9201,-23.8095
2025-08-15T23:59:40.955Z,-1.1699,-0.4006,0.5626,0.0367,0.5582,1.679,27.0155,-18.3794,-23.6162
2025-08-15T23:59:40.964Z,-1.0736,-0.4041,0.7546,0.0485,0.5107,1.6527,26.7931,-18.9466,-23.5918
2025-08-15T23:59:40.975Z,-1.0035,-0.4289,0.922,0.0686,0.4701,1.6156,26.5449,-19.3093,-23.3438
2025-08-15T23:59:40.984Z,-0.9434,-0.4689,1.12,0.0838,0.4839,1.5856,26.5181,-19.8122,-22.9928
2025-08-15T23:59:40.994Z,-0.8149,-0.5151,1.1997,0.0993,0.5411,1.5583,26.1535,-20.1937,-23.1022
2025-08-15T23:59:41.004Z,-0.709,-0.5418,1.2058,0.1007,0.6409,1.5409,25.8836,-20.7076,-23.0348
2025-08-15T23:59:41.014Z,-0.6918,-0.5654,1.1525,0.0975,0.7592,1.5334,25.7458,-21.226,-22.6997
2025-08-15T23:59:41.026Z,-0.6949,-0.5652,1.0177,0.0839,0.8926,1.5395,25.5963,-21.8446,-22.6634
2025-08-15T23:59:41.034Z,-0.6964,-0.5452,0.7479,0.0611,1.0009,1.5513,25.4156,-22.2372,-22.4497
2025-08-15T23:59:41.044Z,-0.733,-0.5551,0.4487,0.0419,1.0659,1.5475,25.1898,-22.6703,-22.4027
2025-08-15T23:59:41.054Z,-0.7593,-0.5601,0.1833,0.0094,1.0746,1.5343,24.9803,-23.1552,-21.9226
2025-08-15T23:59:41.066Z,-0.7825,-0.4782,0.0428,-0.0227,1.036,1.5229,24.805,-23.3684,-21.5865
2025-08-15T23:59:41.074Z,-0.7517,-0.3696,-0.0326,-0.0459,0.9622,1.52,24.6391,-23.8186,-21.4571
2025-08-15T23:59:41.084Z,-0.7327,-0.3276,-0.1193,-0.0588,0.845,1.5087,24.5572,-24.2809,-21.0569
2025-08-15T23:59:41.094Z,-0.7138,-0.3651,-0.0402,-0.0596,0.7028,1.4919,24.2596,-24.5345,-20.8722
2025-08-15T23:59:41.106Z,-0.7507,-0.3284,0.1653,-0.0369,0.6089,1.485,24.0567,-25.0455,-20.6578
2025-08-15T23:59:41.114Z,-0.6802,-0.3242,0.2563,0.0004,0.5838,1.4894,23.7951,-25.4623,-20.5637
2025-08-15T23:59:41.124Z,-0.5552,-0.4354,0.252,0.0377,0.5886,1.4991,23.4295,-25.7714,-20.2935
2025-08-15T23:59:41.134Z,-0.498,-0.569,0.2719,0.0604,0.6065,1.5165,23.3366,-26.2029,-20.3468
2025-08-15T23:59:41.145Z,-0.4668,-0.5847,0.3081,0.0648,0.6456,1.5285,22.9678,-26.6716,-20.1462
2025-08-15T23:59:41.154Z,-0.3604,-0.5101,0.3219,0.063,0.7011,1.5434,22.6846,-26.961,-20.0236
2025-08-15T23:59:41.164Z,-0.2182,-0.4653,0.2119,0.0564,0.7364,1.5501,22.2697,-27.2777,-19.8933
2025-08-15T23:59:41.174Z,-0.1188,-0.5131,0.0444,0.0359,0.7223,1.5403,21.989,-27.6811,-19.7458
2025-08-15T23:59:41.184Z,-0.0951,-0.5041,-0.0387,0.0076,0.6614,1.5198,21.8929,-28.1419,-19.4662
2025-08-15T23:59:41.194Z,-0.1619,-0.3648,-0.0294,-0.0116,0.5817,1.501,21.3777,-28.3746,-19.4371
2025-08-15T23:59:41.204Z,-0.1611,-0.245,-0.0436,-0.0093,0.5315,1.489,21.0152,-28.5781,-19.1481
2025-08-15T23:59:41.213Z,-0.0968,-0.2432,-0.1509,0.0072,0.4928,1.4675,20.6138,-29.0262,-19.1732
2025-08-15T23:59:41.224Z,-0.0672,-0.3263,-0.2291,0.0252,0.4569,1.4404,20.286,-29.4032,-19.1249
2025-08-15T23:59:41.235Z,-0.099,-0.3154,-0.2049,0.0381,0.4317,1.4165,20.1015,-29.922,-18.911
2025-08-15T23:59:41.244Z,-0.0905,-0.2743,-0.2232,0.0441,0.4197,1.4002,19.7623,-30.0524,-18.981
2025-08-15T23:59:41.254Z,-0.0674,-0.2906,-0.307,0.0316,0.4056,1.3756,19.36,-30.2286,-18.6657
2025-08-15T23:59:41.264Z,-0.0393,-0.3248,-0.3638,0.0086,0.3815,1.348,18.8949,-30.5594,-18.6653
2025-08-15T23:59:41.274Z,-0.0885,-0.2828,-0.3481,-0.0199,0.3491,1.3254,18.5438,-30.9297,-18.5698
2025-08-15T23:59:41.285Z,-0.1556,-0.1938,-0.305,-0.0362,0.3345,1.3007,18.1388,-31.2674,-18.504
2025-08-15T23:59:41.294Z,-0.1022,-0.1824,-0.3082,-0.0362,0.3333,1.2742,17.7865,-31.407,-18.6004
2025-08-15T23:59:41.304Z,-0.0947,-0.2276,-0.3486,-0.0339,0.3228,1.2421,17.4861,-31.7657,-18.2094
2025-08-15T23:59:41.314Z,-0.1355,-0.2127,-0.3265,-0.0388,0.2977,1.2124,17.1134,-31.8963,-18.0644
2025-08-15T23:59:41.324Z,-0.2064,-0.0978,-0.2665,-0.0407,0.2689,1.1885,16.8755,-32.2015,-18.2814
2025-08-15T23:59:41.335Z,-0.223,-0.0074,-0.2205,-0.0374,0.2528,1.1661,16.4297,-32.5144,-18.2672
2025-08-15T23:59:41.344Z,-0.1918,-0.0112,-0.2271,-0.0271,0.2481,1.1283,16.2305,-32.7203,-18.266
2025-08-15T23:59:41.354Z,-0.1525,-0.0024,-0.2169,-0.0175,0.2441,1.0863,15.8668,-32.9536,-18.2889
2025-08-15T23:59:41.364Z,-0.1761,0.0653,-0.1638,-0.0093,0.2513,1.0489,15.5175,-33.0669,-18.3178
2025-08-15T23:59:41.374Z,-0.1803,0.1432,-0.1245,-0.0008,0.2807,1.0187,15.2359,-33.2248,-18.259
2025-08-15T23:59:41.383Z,-0.1414,0.1813,-0.1941,0.013,0.3019,0.9849,14.9731,-33.5505,-18.4064
2025-08-15T23:59:41.394Z,-0.1704,0.1334,-0.2397,0.0184,0.3061,0.9423,14.5041,-33.484,-18.2433
2025-08-15T23:59:41.404Z,-0.2485,0.1529,-0.24,0.0224,0.3044,0.9042,14.2561,-33.5803,-18.2811
2025-08-15T23:59:41.414Z,-0.3256,0.2434,-0.2303,0.0356,0.3128,0.8735,13.963,-33.8525,-18.3443
2025-08-15T23:59:41.424Z,-0.3243,0.2834,-0.2913,0.0447,0.3199,0.8397,13.6642,-33.8497,-18.0411
2025-08-15T23:59:41.433Z,-0.3234,0.2611,-0.348,0.0576,0.3122,0.8079,13.4003,-34.0642,-18.1575
2025-08-15T23:59:41.444Z,-0.4159,0.2703,-0.3406,0.0663,0.2957,0.7875,13.3241,-34.3666,-18.1472
2025-08-15T23:59:41.454Z,-0.5279,0.3394,-0.3427,0.0806,0.2913,0.7792,13.1171,-34.5478,-17.9613
2025-08-15T23:59:41.464Z,-0.5552,0.4058,-0.4333,0.0961,0.286,0.776,12.7857,-34.4979,-18.0115
2025-08-15T23:59:41.474Z,-0.5795,0.4264,-0.5474,0.11,0.2361,0.7524,12.5136,-34.6318,-17.8194
2025-08-15T23:59:41.483Z,-0.6345,0.4612,-0.5274,0.109,0.1337,0.7174,12.3739,-34.9201,-17.7496
2025-08-15T23:59:41.494Z,-0.6934,0.5776,-0.3791,0.087,-0.0024,0.6682,12.1435,-34.7599,-17.609
2025-08-15T23:59:41.504Z,-0.6004,0.6367,-0.1424,0.0702,-0.1153,0.601,11.8158,-34.8069,-17.7698
2025-08-15T23:59:41.514Z,-0.3439,0.6237,0.122,0.0662,-0.1734,0.5194,11.575,-35.0422,-17.8061
2025-08-15T23:59:41.524Z,-0.0953,0.5194,0.3713,0.0838,-0.1602,0.4314,11.4517,-35.1485,-17.6146
2025-08-15T23:59:41.533Z,0.0085,0.3622,0.5993,0.1116,-0.0911,0.3682,11.1953,-35.2113,-17.5871
2025-08-15T23:59:41.544Z,-0.0193,0.2042,0.7055,0.1391,0.0412,0.3433,11.0988,-35.194,-17.3556
2025-08-15T23:59:41.554Z,-0.0627,0.0585,0.6399,0.1653,0.1979,0.3568,10.9624,-35.4524,-17.3321
2025-08-15T23:59:41.564Z,-0.1503,-0.1034,0.455,0.1746,0.3268,0.3874,10.7782,-35.5972,-17.3519
2025-08-15T23:59:41.574Z,-0.2769,-0.2103,0.2349,0.1661,0.3966,0.4119,10.6096,-35.6691,-17.4948
2025-08-15T23:59:41.583Z,-0.3895,-0.1974,0.0506,0.1412,0.4002,0.419,10.4722,-35.8101,-17.4171
2025-08-15T23:59:41.594Z,-0.3706,-0.0649,-0.0287,0.1187,0.3545,0.4103,10.5067,-35.7866,-17.152
2025-08-15T23:59:41.604Z,-0.2879,0.042,-0.1076,0.1042,0.2727,0.378,10.4198,-35.9033,-17.1298
2025-08-15T23:59:41.614Z,-0.2097,0.0351,-0.1429,0.0939,0.1782,0.3314,10.2723,-35.9441,-17.1401
2025-08-15T23:59:41.624Z,-0.1711,-0.0104,-0.1359,0.0913,0.1171,0.2907,10.3308,-36.0953,-17.0855
2025-08-15T23:59:41.634Z,-0.1339,-0.062,-0.122,0.0952,0.1095,0.2623,10.2076,-36.2517,-16.9938
2025-08-15T23:59:41.646Z,-0.1695,-0.3066,-0.1843,0.0988,0.143,0.2583,9.8098,-35.9648,-16.8397
2025-08-15T23:59:41.654Z,-0.1695,-0.3066,-0.1843,0.0871,0.2053,0.274,9.8098,-35.9648,-16.8397
2025-08-15T23:59:41.664Z,-0.244,-0.396,-0.2097,0.0658,0.2983,0.3024,9.7067,-36.1571,-16.9913
2025-08-15T23:59:41.676Z,-0.2592,-0.4466,-0.3283,0.0355,0.3925,0.3392,9.5549,-36.0833,-17.0357
2025-08-15T23:59:41.683Z,-0.2592,-0.4466,-0.3283,-0.0025,0.4783,0.3764,9.5549,-36.0833,-17.0357
2025-08-15T23:59:41.698Z,-0.2372,-0.4224,-0.4442,-0.0297,0.5464,0.4055,9.517,-36.2322,-16.6681
2025-08-15T23:59:41.703Z,-0.2372,-0.4224,-0.4442,-0.0484,0.5902,0.4286,9.517,-36.2322,-16.6681
2025-08-15T23:59:41.714Z,-0.256,-0.3612,-0.4805,-0.0518,0.603,0.4524,9.2956,-36.1578,-16.5558
2025-08-15T23:59:41.726Z,-0.4049,-0.3043,-0.5454,-0.0375,0.5942,0.4856,9.4561,-36.5589,-16.6486
2025-08-15T23:59:41.733Z,-0.4049,-0.3043,-0.5454,-0.013,0.5657,0.5248,9.4561,-36.5589,-16.6486
2025-08-15T23:59:41.746Z,-0.5783,-0.285,-0.5666,0.0179,0.5241,0.5673,9.0755,-36.5279,-16.4186
2025-08-15T23:59:41.756Z,-0.6001,-0.2621,-0.6013,0.05,0.4941,0.6172,8.8658,-36.5199,-16.5338
2025-08-15T23:59:41.767Z,-0.6093,-0.2292,-0.6128,0.0654,0.4658,0.669,8.6953,-36.6076,-16.3962
2025-08-15T23:59:41.774Z,-0.6093,-0.2292,-0.6128,0.0664,0.4388,0.7231,8.6953,-36.6076,-16.3962
2025-08-15T23:59:41.783Z,-0.5391,-0.2127,-0.5809,0.0609,0.4257,0.7733,8.4484,-36.8056,-16.4235
2025-08-15T23:59:41.796Z,-0.2723,-0.2292,-0.5101,0.0393,0.3914,0.8143,8.1976,-36.9933,-16.324
2025-08-15T23:59:41.808Z,-0.1065,-0.2524,-0.3514,0.0061,0.325,0.8343,8.0235,-37.0002,-16.2638
2025-08-15T23:59:41.813Z,-0.1065,-0.2524,-0.3514,-0.0296,0.2602,0.8417,8.0235,-37.0002,-16.2638
2025-08-15T23:59:41.826Z,0.2929,-0.2404,0.0236,-0.0565,0.2122,0.8364,7.4779,-37.3256,-16.2914
2025-08-15T23:59:41.834Z,0.2929,-0.2404,0.0236,-0.0724,0.1857,0.8301,7.4779,-37.3256,-16.2914
2025-08-15T23:59:41.847Z,0.54,-0.3579,0.3727,-0.0679,0.1894,0.8244,7.0764,-37.4618,-16.2521
2025-08-15T23:59:41.854Z,0.54,-0.3579,0.3727,-0.0556,0.2109,0.8225,7.0764,-37.4618,-16.2521
2025-08-15T23:59:41.866Z,0.5337,-0.5259,0.5129,-0.037,0.2282,0.83,6.4012,-37.5281,-16.4971
2025-08-15T23:59:41.877Z,0.5311,-0.5621,0.5308,-0.0264,0.2553,0.8449,6.1519,-37.5378,-16.4464
2025-08-15T23:59:41.886Z,0.5637,-0.5705,0.503,-0.023,0.2813,0.8668,5.8943,-37.7132,-16.2494
2025-08-15T23:59:41.896Z,0.636,-0.5862,0.4168,-0.032,0.3182,0.8831,5.5233,-37.7492,-16.5577
2025-08-15T23:59:41.906Z,0.757,-0.6186,0.2904,-0.0478,0.3578,0.8878,5.2174,-37.7172,-16.4246
2025-08-15T23:59:41.916Z,0.8316,-0.5697,0.1994,-0.0728,0.4038,0.8741,4.8511,-37.7532,-16.443
2025-08-15T23:59:41.925Z,0.8718,-0.5022,0.0644,-0.0968,0.4483,0.8644,4.6224,-37.6811,-16.3372
2025-08-15T23:59:41.936Z,0.9073,-0.5117,-0.1347,-0.1146,0.4762,0.8555,4.4056,-37.6347,-16.3969
2025-08-15T23:59:41.946Z,0.8853,-0.5417,-0.268,-0.128,0.4777,0.8475,4.0684,-37.7453,-16.4206
2025-08-15T23:59:41.956Z,0.8177,-0.4851,-0.376,-0.138,0.4581,0.838,3.9123,-37.8922,-16.449
2025-08-15T23:59:41.966Z,0.8074,-0.3695,-0.5106,-0.139,0.4372,0.8287,3.6687,-37.8901,-16.4968
2025-08-15T23:59:41.975Z,0.8428,-0.3524,-0.6712,-0.1412,0.4102,0.8304,3.4323,-37.8476,-16.6949
2025-08-15T23:59:41.985Z,0.8961,-0.3819,-0.7426,-0.1419,0.3679,0.8248,3.2845,-37.8566,-16.4427
2025-08-15T23:59:41.995Z,0.8947,-0.3298,-0.7431,-0.1464,0.3164,0.807,2.9506,-37.9885,-16.5784
2025-08-15T23:59:42.005Z,0.9212,-0.1709,-0.7174,-0.1506,0.2805,0.7821,2.7163,-37.9991,-16.5673
2025-08-15T23:59:42.016Z,0.9671,-0.0918,-0.7917,-0.1454,0.2658,0.767,2.3609,-37.9625,-16.7993
2025-08-15T23:59:42.025Z,0.9982,-0.1005,-0.8068,-0.1449,0.2424,0.7463,2.0486,-37.8726,-16.8469
2025-08-15T23:59:42.036Z,0.9294,-0.0571,-0.7781,-0.1511,0.211,0.721,1.9336,-37.8738,-16.8901
2025-08-15T23:59:42.046Z,0.8506,0.1003,-0.7489,-0.154,0.1829,0.6924,1.7375,-37.857,-16.9368
2025-08-15T23:59:42.056Z,0.8176,0.1623,-0.7472,-0.1493,0.1614,0.6697,1.4364,-37.9155,-17.231
2025-08-15T23:59:42.065Z,0.7746,0.119,-0.8017,-0.1434,0.1517,0.6552,1.1358,-37.8717,-17.1249
2025-08-15T23:59:42.075Z,0.7199,0.1431,-0.7855,-0.1395,0.1337,0.6463,0.8537,-37.7347,-17.2255
2025-08-15T23:59:42.087Z,0.6676,0.2192,-0.7646,-0.1469,0.122,0.6257,0.7188,-37.7306,-17.2766
2025-08-15T23:59:42.095Z,0.6907,0.3426,-0.72,-0.1714,0.1332,0.6006,0.4634,-37.6073,-17.2432
2025-08-15T23:59:42.106Z,0.7284,0.4419,-0.6889,-0.1909,0.1652,0.5782,0.2487,-37.7461,-17.416
2025-08-15T23:59:42.115Z,0.7357,0.4523,-0.7208,-0.2077,0.2057,0.5552,0.0829,-37.719,-17.5316
2025-08-15T23:59:42.126Z,0.6449,0.4642,-0.6279,-0.2255,0.2268,0.5324,-0.1178,-37.6551,-17.527
2025-08-15T23:59:42.136Z,0.5449,0.571,-0.5533,-0.2301,0.24,0.5171,-0.3004,-37.7006,-17.7215
2025-08-15T23:59:42.145Z,0.538,0.6618,-0.549,-0.219,0.2563,0.5229,-0.3255,-37.5153,-17.5428
2025-08-15T23:59:42.156Z,0.5973,0.6598,-0.615,-0.1898,0.278,0.526,-0.5912,-37.6189,-17.9651
2025-08-15T23:59:42.165Z,0.6391,0.6296,-0.6375,-0.1532,0.2803,0.5168,-0.8078,-37.538,-18.2664
2025-08-15T23:59:42.175Z,0.5991,0.7064,-0.5792,-0.1202,0.2414,0.4938,-1.0789,-37.6032,-18.2011
2025-08-15T23:59:42.185Z,0.5991,0.8495,-0.4608,-0.0997,0.1892,0.4688,-1.1861,-37.5928,-18.1539
2025-08-15T23:59:42.196Z,0.7091,0.9151,-0.4212,-0.0733,0.1702,0.4393,-1.211,-37.5789,-17.962
2025-08-15T23:59:42.205Z,0.7917,0.8726,-0.4537,-0.0389,0.1926,0.4079,-1.2276,-37.5301,-18.0785
2025-08-15T23:59:42.215Z,0.7351,0.8468,-0.3993,-0.0066,0.2158,0.3789,-1.4367,-37.5441,-18.2276
2025-08-15T23:59:42.224Z,0.6028,0.8769,-0.332,0.0176,0.2173,0.3643,-1.5085,-37.5315,-18.1367
2025-08-15T23:59:42.236Z,0.5699,0.8936,-0.2969,0.0312,0.2164,0.3655,-1.5693,-37.5288,-18.1155
2025-08-15T23:59:42.244Z,0.6637,0.8501,-0.3531,0.0514,0.2285,0.3739,-1.7211,-37.4654,-18.2805
2025-08-15T23:59:42.255Z,0.7288,0.8167,-0.3563,0.0668,0.235,0.3697,-1.839,-37.5026,-18.3213
2025-08-15T23:59:42.264Z,0.7119,0.8785,-0.2064,0.077,0.2024,0.3495,-1.942,-37.567,-18.1623
2025-08-15T23:59:42.274Z,0.7332,0.9691,-0.093,0.0868,0.1662,0.3256,-2.1267,-37.4841,-18.2176
2025-08-15T23:59:42.284Z,0.8254,0.9575,-0.0978,0.1033,0.1477,0.2961,-2.1829,-37.569,-18.1429
2025-08-15T23:59:42.294Z,0.8807,0.8766,-0.0678,0.1203,0.1397,0.2569,-2.3117,-37.5823,-18.155
2025-08-15T23:59:42.306Z,0.8521,0.8058,0.002,0.1359,0.1252,0.2256,-2.4456,-37.5728,-17.9956
2025-08-15T23:59:42.314Z,0.8227,0.7906,0.1138,0.1472,0.1035,0.2054,-2.4783,-37.5044,-17.9447
2025-08-15T23:59:42.324Z,0.8281,0.7453,0.2439,0.1574,0.0746,0.1918,-2.5442,-37.5325,-18.0001
2025-08-15T23:59:42.334Z,0.8943,0.6423,0.3115,0.171,0.0499,0.1719,-2.5492,-37.5325,-17.9595
2025-08-15T23:59:42.345Z,0.9323,0.5304,0.4108,0.1813,0.0176,0.1449,-2.5477,-37.6237,-17.9475
2025-08-15T23:59:42.354Z,0.9437,0.4747,0.563,0.1856,-0.0157,0.1124,-2.6289,-37.6548,-18.041
2025-08-15T23:59:42.364Z,0.9716,0.4405,0.6754,0.1876,-0.0225,0.0867,-2.7013,-37.732,-17.8752
2025-08-15T23:59:42.374Z,0.9955,0.3337,0.675,0.1937,0.0077,0.0648,-2.6835,-37.7169,-17.9942
2025-08-15T23:59:42.385Z,0.91,0.2283,0.6037,0.2058,0.0814,0.0485,-2.6092,-37.7126,-17.7757
2025-08-15T23:59:42.394Z,0.7479,0.2284,0.4387,0.2019,0.1823,0.0442,-2.4524,-37.7435,-17.7104
2025-08-15T23:59:42.404Z,0.5836,0.3253,0.3226,0.1803,0.2471,0.0529,-2.6168,-37.9011,-17.6022
2025-08-15T23:59:42.414Z,0.4516,0.4042,0.2685,0.1245,0.2508,0.0583,-2.5727,-37.979,-17.5309
2025-08-15T23:59:42.425Z,0.412,0.4129,0.2646,0.0595,0.1977,0.054,-2.5627,-37.818,-17.5988
2025-08-15T23:59:42.434Z,0.4728,0.4069,0.3645,-0.0047,0.1137,0.0279,-2.4645,-37.7903,-17.6159
2025-08-15T23:59:42.444Z,0.5148,0.4608,0.547,-0.0427,0.0446,-0.0102,-2.5057,-37.711,-17.4107
2025-08-15T23:59:42.454Z,0.505,0.4635,0.7674,-0.0479,-0.0007,-0.0439,-2.5386,-37.8227,-17.6646
2025-08-15T23:59:42.464Z,0.4621,0.3177,0.8197,-0.0263,-0.006,-0.0698,-2.5598,-37.673,-17.7363
2025-08-15T23:59:42.474Z,0.3059,0.2017,0.8827,-0.0045,-0.0077,-0.0813,-2.5036,-37.6068,-17.7369
2025-08-15T23:59:42.484Z,0.1562,0.1783,1.01,0.0097,-0.0104,-0.0682,-2.4931,-37.7514,-17.8492
2025-08-15T23:59:42.494Z,0.1091,0.0815,0.9802,0.0267,0,-0.0356,-2.207,-37.9093,-17.6198
2025-08-15T23:59:42.504Z,0.1022,-0.0622,0.9212,0.0465,0.022,-0.0028,-2.365,-37.8772,-17.8529
2025-08-15T23:59:42.514Z,0.1214,-0.1857,0.8292,0.0723,0.0657,0.0235,-2.3176,-37.8542,-17.8028
2025-08-15T23:59:42.524Z,0.1327,-0.2538,0.6592,0.0972,0.1343,0.0493,-2.3334,-37.8256,-17.772
2025-08-15T23:59:42.534Z,0.0998,-0.2899,0.4531,0.1213,0.2158,0.072,-2.3806,-37.9346,-17.7317
2025-08-15T23:59:42.544Z,0.0425,-0.3165,0.2077,0.1393,0.2806,0.0869,-2.2937,-37.9893,-17.3812
2025-08-15T23:59:42.554Z,-0.0793,-0.3363,-0.0328,0.1423,0.3158,0.1058,-2.4027,-37.9615,-17.5514
2025-08-15T23:59:42.564Z,-0.2031,-0.3387,-0.274,0.1423,0.3272,0.1297,-2.3827,-37.899,-17.5229
2025-08-15T23:59:42.574Z,-0.2758,-0.3763,-0.5708,0.1486,0.3261,0.1631,-2.4186,-38.0151,-17.4462
2025-08-15T23:59:42.584Z,-0.3302,-0.4509,-0.8187,0.1542,0.3024,0.1867,-2.3132,-38.038,-17.3448
2025-08-15T23:59:42.594Z,-0.3723,-0.4946,-0.9263,0.166,0.2467,0.2012,-2.2791,-38.1015,-17.3165
2025-08-15T23:59:42.604Z,-0.3961,-0.4628,-0.9567,0.1805,0.1821,0.2015,-2.5219,-37.8674,-17.2891
2025-08-15T23:59:42.614Z,-0.4311,-0.4286,-1.0199,0.2034,0.1373,0.1942,-2.5164,-37.9783,-17.3005
2025-08-15T23:59:42.624Z,-0.5021,-0.4605,-1.0546,0.2322,0.1013,0.1935,-2.6169,-38.0462,-17.1774
2025-08-15T23:59:42.634Z,-0.633,-0.5399,-1.0902,0.2514,0.0739,0.1886,-2.4793,-38.2037,-16.9457
2025-08-15T23:59:42.644Z,-0.789,-0.5931,-1.1151,0.2515,0.0461,0.1906,-2.4087,-38.1884,-16.7987
2025-08-15T23:59:42.654Z,-0.9215,-0.5916,-1.1674,0.2357,0.0332,0.2108,-2.7068,-38.277,-17.189
2025-08-15T23:59:42.664Z,-0.9952,-0.5961,-1.2321,0.2116,0.0163,0.2417,-2.7731,-38.3502,-16.9649
2025-08-15T23:59:42.674Z,-1.093,-0.5908,-1.1668,0.1698,-0.0125,0.2627,-3.0344,-38.2594,-17.0347
2025-08-15T23:59:42.684Z,-1.1539,-0.5196,-1.0048,0.1135,-0.0624,0.2659,-3.0913,-38.1583,-16.8361
2025-08-15T23:59:42.694Z,-1.1069,-0.4352,-0.8997,0.0601,-0.094,0.264,-2.9997,-38.2572,-16.6574
2025-08-15T23:59:42.704Z,-1.0442,-0.4431,-0.7797,0.0133,-0.1122,0.2538,-3.162,-38.2915,-16.7053
2025-08-15T23:59:42.713Z,-1.0255,-0.4522,-0.5503,-0.0263,-0.1299,0.2261,-3.3583,-38.2557,-16.7843
2025-08-15T23:59:42.724Z,-1.0581,-0.4175,-0.3033,-0.0628,-0.1489,0.1981,-3.3876,-38.3139,-16.7677
2025-08-15T23:59:42.734Z,-1.0426,-0.4079,-0.0901,-0.0927,-0.1517,0.1797,-3.4798,-38.3357,-16.8035
2025-08-15T23:59:42.744Z,-1.0036,-0.4657,0.1051,-0.1092,-0.1429,0.1685,-3.4006,-38.2675,-16.6963
2025-08-15T23:59:42.754Z,-1.0304,-0.527,0.305,-0.1224,-0.1267,0.1575,-3.7122,-38.2948,-16.8645
2025-08-15T23:59:42.764Z,-1.0424,-0.5674,0.5197,-0.1254,-0.1016,0.1535,-3.8544,-38.0475,-16.8789
2025-08-15T23:59:42.774Z,-1.0151,-0.5591,0.5813,-0.1135,-0.0367,0.1654,-3.8633,-38.1329,-17.0623
2025-08-15T23:59:42.783Z,-1.0158,-0.5759,0.585,-0.0828,0.0527,0.1883,-4.005,-38.0705,-17.1012
2025-08-15T23:59:42.794Z,-1.0637,-0.5919,0.5163,-0.0435,0.1527,0.212,-3.8548,-38.1226,-17.0306
2025-08-15T23:59:42.804Z,-1.1602,-0.5228,0.3454,-0.0082,0.2574,0.2418,-4.1268,-37.9924,-17.2645
2025-08-15T23:59:42.814Z,-1.1853,-0.4355,0.1208,0.0128,0.3486,0.2764,-4.096,-38.0477,-17.0567
2025-08-15T23:59:42.824Z,-1.0979,-0.4106,-0.2177,0.0124,0.434,0.3179,-4.2761,-37.9935,-17.3392
2025-08-15T23:59:42.833Z,-1.0108,-0.3831,-0.4961,-0.0135,0.495,0.3364,-4.2607,-38.2178,-17.5816
2025-08-15T23:59:42.844Z,-0.9709,-0.229,-0.6348,-0.0548,0.5116,0.3441,-4.3313,-37.9291,-17.3397
2025-08-15T23:59:42.854Z,-0.9181,-0.0312,-0.7795,-0.0952,0.5015,0.3517,-4.3073,-38.0298,-17.4503
2025-08-15T23:59:42.864Z,-0.8177,0.0278,-0.8808,-0.1228,0.4675,0.3527,-4.4044,-37.9021,-17.4356
2025-08-15T23:59:42.874Z,-0.7588,0.0762,-0.8696,-0.1518,0.4056,0.3311,-4.4825,-37.961,-17.4889
2025-08-15T23:59:42.883Z,-0.7504,0.2049,-0.7985,-0.1775,0.3462,0.2988,-4.5217,-37.9878,-17.6292
2025-08-15T23:59:42.894Z,-0.7026,0.2659,-0.7752,-0.1786,0.3065,0.2846,-4.4671,-38.1017,-17.7681
2025-08-15T23:59:42.904Z,-0.6282,0.2208,-0.7986,-0.1635,0.3026,0.2828,-4.5793,-37.9816,-17.7791
2025-08-15T23:59:42.914Z,-0.5844,0.1643,-0.8274,-0.1375,0.3144,0.2914,-4.5267,-37.9909,-17.9045
2025-08-15T23:59:42.924Z,-0.5768,0.195,-0.8359,-0.1082,0.3194,0.3131,-4.7139,-37.9109,-17.9474
2025-08-15T23:59:42.933Z,-0.5634,0.2483,-0.8313,-0.0821,0.3039,0.3366,-4.8704,-37.9465,-18.0811
2025-08-15T23:59:42.947Z,-0.5515,0.3028,-0.8071,-0.0501,0.2181,0.3555,-4.8165,-37.963,-18.0045
2025-08-15T23:59:42.954Z,-0.4951,0.3901,-0.7926,-0.0501,0.2181,0.3555,-5.0311,-37.8647,-18.1372
2025-08-15T23:59:42.965Z,-0.4122,0.4896,-0.814,-0.0304,0.206,0.3475,-5.2006,-37.8213,-18.2036
2025-08-15T23:59:42.976Z,-0.3524,0.5117,-0.8205,-0.0066,0.2114,0.3022,-5.1842,-37.8173,-18.1691
2025-08-15T23:59:42.983Z,-0.3546,0.5118,-0.7895,-0.0066,0.2114,0.3022,-5.3186,-37.8494,-18.19
2025-08-15T23:59:42.995Z,-0.3828,0.5511,-0.77,-0.0071,0.2243,0.2853,-5.1934,-37.882,-18.064
2025-08-15T23:59:43.006Z,-0.423,0.5501,-0.7703,-0.0001,0.2434,0.304,-5.2794,-37.7204,-18.1008
2025-08-15T23:59:43.014Z,-0.4977,0.5529,-0.7499,-0.0001,0.2434,0.304,-5.417,-37.6887,-18.1074
2025-08-15T23:59:43.025Z,-0.5524,0.6079,-0.7014,0.0354,0.209,0.3435,-5.3885,-37.7084,-18.2327
2025-08-15T23:59:43.033Z,-0.5458,0.6527,-0.7012,0.0354,0.209,0.3435,-5.5709,-37.6667,-18.2724
2025-08-15T23:59:43.045Z,-0.5564,0.6692,-0.682,0.0767,0.1101,0.3344,-5.7694,-37.5627,-18.2454
2025-08-15T23:59:43.056Z,-0.5494,0.7255,-0.6105,0.0907,0.0457,0.3233,-5.9419,-37.699,-18.0671
2025-08-15T23:59:43.065Z,-0.5089,0.7989,-0.5579,0.1019,-0.0044,0.3087,-6.1124,-37.6354,-18.1096
2025-08-15T23:59:43.075Z,-0.4409,0.8155,-0.5269,0.1019,-0.0385,0.2821,-6.257,-37.6506,-18.1321
2025-08-15T23:59:43.083Z,-0.4006,0.8174,-0.4706,0.1019,-0.0385,0.2821,-6.3191,-37.5263,-18.0694
2025-08-15T23:59:43.095Z,-0.41,0.8185,-0.4214,0.0872,-0.0541,0.2358,-6.3892,-37.63,-18.0161
2025-08-15T23:59:43.105Z,-0.3747,0.8051,-0.4296,0.0617,-0.0517,0.2209,-6.4856,-37.6269,-18.1954
2025-08-15T23:59:43.115Z,-0.3626,0.8068,-0.3557,0.0287,-0.0549,0.2025,-6.6391,-37.7307,-18.2097
2025-08-15T23:59:43.125Z,-0.3674,0.8134,-0.2266,-0.0075,-0.0665,0.1864,-6.7223,-37.7112,-18.1934
2025-08-15T23:59:43.133Z,-0.325,0.813,-0.1411,-0.0075,-0.0665,0.1864,-6.6783,-37.8269,-18.1548
2025-08-15T23:59:43.145Z,-0.2432,0.7571,-0.0351,-0.0508,-0.0672,0.1405,-6.8628,-37.6377,-18.3618
2025-08-15T23:59:43.155Z,-0.1702,0.6592,0.1087,-0.0508,-0.0672,0.1405,-6.9681,-37.7651,-18.3275
2025-08-15T23:59:43.165Z,-0.0982,0.6077,0.2606,-0.0543,-0.0276,0.0968,-7.0429,-37.6474,-18.3295
2025-08-15T23:59:43.176Z,-0.0683,0.6402,0.3926,-0.0151,0.0445,0.1118,-7.1191,-37.7018,-18.2718
2025-08-15T23:59:43.184Z,-0.154,0.7577,0.2935,-0.0151,0.0445,0.1118,-7.1171,-37.6192,-18.2438
2025-08-15T23:59:43.195Z,-0.325,0.8644,0.24,0.0249,-0.0932,0.1399,-7.1089,-37.534,-18.209
2025-08-15T23:59:43.205Z,-0.4276,0.883,0.4917,0.0052,-0.3513,0.1219,-7.1293,-37.6061,-18.1792
2025-08-15T23:59:43.215Z,-0.4285,0.9856,0.827,-0.0176,-0.6201,0.0819,-7.1942,-37.7058,-18.2419
2025-08-15T23:59:43.225Z,-0.219,1.0968,1.3113,-0.0194,-0.8011,0.0152,-7.3893,-37.5585,-18.3095
2025-08-15T23:59:43.235Z,0.1105,1.0422,1.7898,-0.0033,-0.8448,-0.0586,-7.4664,-37.5548,-18.2814
2025-08-15T23:59:43.245Z,0.4357,0.7887,2.0139,0.0133,-0.7904,-0.1196,-7.5404,-37.5932,-18.1547
2025-08-15T23:59:43.256Z,0.4848,0.5155,2.2302,0.0192,-0.6428,-0.1614,-7.7028,-37.7211,-18.2309
2025-08-15T23:59:43.265Z,0.523,0.3688,2.4532,0.0505,-0.3892,-0.1669,-7.7717,-37.6485,-18.0389
2025-08-15T23:59:43.274Z,0.5851,0.2316,2.2851,0.0927,-0.0582,-0.146,-7.819,-37.6,-18.2182
2025-08-15T23:59:43.285Z,0.5825,-0.0719,1.8765,0.1216,0.2483,-0.1136,-7.7496,-37.5147,-18.0692
2025-08-15T23:59:43.294Z,0.4447,-0.3654,1.3511,0.1119,0.4732,-0.0711,-7.6504,-37.7062,-18.1116
2025-08-15T23:59:43.305Z,0.3021,-0.4827,0.8405,0.0695,0.5855,-0.0365,-7.3485,-37.7022,-18.0959
2025-08-15T23:59:43.314Z,0.2408,-0.4708,0.4139,0.0251,0.6143,-0.0143,-7.4208,-37.7993,-18.0426
2025-08-15T23:59:43.324Z,0.2916,-0.447,0.0779,-0.0001,0.5892,-0.01,-7.3754,-37.7284,-18.106
2025-08-15T23:59:43.334Z,0.4338,-0.505,-0.2092,-0.0001,0.5892,-0.01,-7.3123,-37.7309,-18.2036
2025-08-15T23:59:43.344Z,0.5306,-0.6224,-0.4726,0.0533,0.4917,-0.0315,-7.2481,-37.7866,-18.2543
2025-08-15T23:59:43.354Z,0.5211,-0.7652,-0.6955,0.1253,0.4171,-0.0316,-7.0069,-37.8109,-18.2786
2025-08-15T23:59:43.364Z,0.4598,-0.904,-0.8477,0.2129,0.3446,-0.0139,-6.8735,-37.786,-18.2574
2025-08-15T23:59:43.375Z,0.4308,-1.1076,-1.0217,0.3049,0.2895,0.0155,-6.8862,-37.9262,-18.2023
2025-08-15T23:59:43.384Z,0.3829,-1.2705,-1.2527,0.3783,0.2436,0.0582,-6.6915,-37.9056,-18.0847
2025-08-15T23:59:43.395Z,0.3301,-1.3214,-1.4049,0.4276,0.2044,0.0984,-6.7504,-38.014,-18.2141
2025-08-15T23:59:43.404Z,0.3063,-1.2533,-1.5317,0.4475,0.1611,0.1366,-6.7165,-37.9578,-17.8918
2025-08-15T23:59:43.414Z,0.3427,-1.1089,-1.5864,0.4323,0.1127,0.1523,-6.8232,-38.1747,-17.6928
2025-08-15T23:59:43.425Z,0.4764,-1.0143,-1.5863,0.3909,0.0508,0.1433,-6.9213,-38.2918,-17.7606
2025-08-15T23:59:43.434Z,0.6416,-0.9788,-1.557,0.3909,0.0508,0.1433,-7.0047,-38.2259,-17.4195
2025-08-15T23:59:43.444Z,0.8667,-0.9797,-1.4613,0.2141,-0.1251,0.0467,-7.0409,-38.2354,-17.475
2025-08-15T23:59:43.455Z,1.0628,-0.9703,-1.3434,0.1019,-0.2047,-0.0232,-6.9318,-38.3872,-17.1296
2025-08-15T23:59:43.464Z,1.1915,-0.9138,-1.1741,-0.0013,-0.27,-0.0986,-7.0062,-38.3121,-17.2499
2025-08-15T23:59:43.475Z,1.2019,-0.8367,-0.9839,-0.089,-0.3271,-0.1568,-6.9775,-38.3284,-17.4759
2025-08-15T23:59:43.484Z,1.1484,-0.8119,-0.7764,-0.1588,-0.3543,-0.1985,-6.984,-38.2508,-17.3556
2025-08-15T23:59:43.495Z,1.0461,-0.8514,-0.5321,-0.2083,-0.3393,-0.2205,-7.105,-38.2238,-17.5394
2025-08-15T23:59:43.504Z,0.9896,-0.8794,-0.3355,-0.2475,-0.2659,-0.2229,-6.9731,-38.1276,-17.2312
2025-08-15T23:59:43.515Z,1.0141,-0.8632,-0.2253,-0.2772,-0.1446,-0.2199,-6.8486,-38.1923,-17.3067
2025-08-15T23:59:43.524Z,1.0197,-0.8098,-0.1251,-0.2997,-0.0073,-0.2216,-6.8042,-38.3251,-17.5223
2025-08-15T23:59:43.535Z,0.9709,-0.7132,-0.0433,-0.323,0.1283,-0.2186,-6.8032,-38.1914,-17.721
2025-08-15T23:59:43.545Z,0.9044,-0.5866,-0.0686,-0.3379,0.2082,-0.2101,-6.7545,-38.197,-17.8247
2025-08-15T23:59:43.555Z,0.8063,-0.4914,-0.112,-0.3456,0.2252,-0.1941,-6.4959,-38.1986,-17.7964
2025-08-15T23:59:43.564Z,0.7089,-0.4158,-0.1485,-0.3299,0.1869,-0.1726,-6.4969,-38.1122,-17.9175
2025-08-15T23:59:43.575Z,0.6392,-0.3513,-0.1859,-0.2903,0.1122,-0.1544,-6.4519,-38.0953,-18.0551
2025-08-15T23:59:43.584Z,0.6341,-0.3068,-0.2245,-0.228,0.0247,-0.1474,-6.3995,-37.9767,-18.4193
2025-08-15T23:59:43.595Z,0.6108,-0.2381,-0.2535,-0.1555,-0.0517,-0.1496,-6.3649,-37.9051,-18.498
2025-08-15T23:59:43.605Z,0.6113,-0.16,-0.3112,-0.0851,-0.089,-0.1586,-6.1409,-37.6641,-18.2891
2025-08-15T23:59:43.614Z,0.6463,-0.1146,-0.4328,-0.0314,-0.078,-0.1678,-6.2086,-37.9758,-18.3883
2025-08-15T23:59:43.625Z,0.688,-0.1077,-0.6153,-0.0139,-0.0426,-0.1783,-6.0612,-37.9635,-18.5936
2025-08-15T23:59:43.635Z,0.6781,-0.1031,-0.795,-0.024,-0.0056,-0.1783,-6.0404,-37.8338,-18.7811
2025-08-15T23:59:43.644Z,0.6449,-0.0831,-0.999,-0.0601,0.0275,-0.1717,-6.0352,-37.786,-18.7292
2025-08-15T23:59:43.655Z,0.6245,-0.0381,-1.2024,-0.1133,0.021,-0.1713,-5.8736,-37.7747,-18.6081
2025-08-15T23:59:43.664Z,0.6151,0.0218,-1.2616,-0.1611,-0.0184,-0.1816,-5.8039,-37.7685,-18.6335
2025-08-15T23:59:43.674Z,0.6381,0.1105,-1.1877,-0.1867,-0.0838,-0.2091,-5.7243,-37.7697,-18.7919
2025-08-15T23:59:43.684Z,0.6874,0.1758,-1.0661,-0.1768,-0.1304,-0.2433,-5.8735,-37.9485,-18.9111
2025-08-15T23:59:43.695Z,0.7449,0.2135,-0.9403,-0.1472,-0.1643,-0.2687,-5.7207,-37.8746,-18.9435
2025-08-15T23:59:43.705Z,0.7719,0.2166,-0.8305,-0.1038,-0.171,-0.2802,-5.5375,-37.725,-18.9162
2025-08-15T23:59:43.714Z,0.7686,0.1865,-0.7559,-0.074,-0.156,-0.2857,-5.6683,-37.7782,-19.0802
2025-08-15T23:59:43.724Z,0.7412,0.1904,-0.7079,-0.0529,-0.1175,-0.2757,-5.7626,-37.6575,-19.1056
2025-08-15T23:59:43.734Z,0.6817,0.2488,-0.6585,-0.0424,-0.0601,-0.2471,-5.5199,-37.7122,-19.1719
2025-08-15T23:59:43.744Z,0.6105,0.3328,-0.6672,-0.0392,0.0026,-0.2105,-5.3671,-37.7028,-19.1852
2025-08-15T23:59:43.754Z,0.4983,0.4327,-0.6725,-0.0288,0.0639,-0.1701,-5.172,-37.6571,-18.9815
2025-08-15T23:59:43.766Z,0.4192,0.5396,-0.7246,-0.0219,0.1072,-0.1263,-5.0534,-37.7777,-18.9309
2025-08-15T23:59:43.774Z,0.3224,0.6607,-0.764,-0.017,0.1219,-0.0801,-5.0696,-37.8993,-19.2422
2025-08-15T23:59:43.784Z,0.2384,0.7977,-0.7887,-0.018,0.1008,-0.0438,-5.1408,-37.7718,-19.1468
2025-08-15T23:59:43.794Z,0.2231,0.9402,-0.7675,-0.032,0.0402,-0.0192,-5.0791,-37.7611,-19.1674
2025-08-15T23:59:43.805Z,0.2214,1.1239,-0.7007,-0.0572,-0.0419,-0.0156,-4.9736,-37.7631,-19.136
2025-08-15T23:59:43.814Z,0.31,1.258,-0.5531,-0.0829,-0.1224,-0.021,-5.0775,-37.7389,-19.1556
2025-08-15T23:59:43.824Z,0.4544,1.3482,-0.3011,-0.1108,-0.1953,-0.0461,-5.0909,-37.6677,-19.2774
2025-08-15T23:59:43.834Z,0.5539,1.3773,0.0375,-0.1351,-0.2441,-0.0767,-5.1413,-37.8294,-19.3751
2025-08-15T23:59:43.845Z,0.6461,1.3457,0.3539,-0.1459,-0.2622,-0.0962,-5.1617,-37.7006,-19.4169
2025-08-15T23:59:43.854Z,0.7114,1.2925,0.6265,-0.1369,-0.254,-0.1034,-4.9504,-37.7091,-19.3408
2025-08-15T23:59:43.864Z,0.6973,1.1859,0.8862,-0.1181,-0.2284,-0.1075,-5.1121,-37.553,-19.3082
2025-08-15T23:59:43.874Z,0.6879,1.0646,1.1284,-0.078,-0.1745,-0.1065,-5.0921,-37.7579,-19.451
2025-08-15T23:59:43.884Z,0.6696,0.9995,1.3051,-0.0179,-0.0685,-0.1018,-5.0502,-37.7444,-19.6512
2025-08-15T23:59:43.894Z,0.5859,0.9416,1.2902,0.0476,0.0714,-0.0897,-5.0669,-37.805,-19.7864
2025-08-15T23:59:43.904Z,0.3331,0.9388,1.1465,0.0812,0.1563,-0.0719,-4.9538,-37.7058,-19.4439
2025-08-15T23:59:43.914Z,0.0758,0.9551,1.031,0.0695,0.138,-0.0517,-4.8478,-37.8724,-19.5169
2025-08-15T23:59:43.925Z,-0.1691,0.9801,0.9748,0.0229,0.0376,-0.0371,-4.7601,-37.8148,-19.4532
2025-08-15T23:59:43.934Z,-0.2053,0.9475,0.9428,-0.0398,-0.0966,-0.0495,-4.8697,-37.7964,-19.5036
2025-08-15T23:59:43.944Z,-0.1444,0.8208,1.0289,-0.1054,-0.2347,-0.0891,-4.9612,-37.7358,-19.5083
2025-08-15T23:59:43.954Z,-0.0841,0.7451,1.3682,-0.1456,-0.3132,-0.1256,-4.8407,-37.7859,-19.426
2025-08-15T23:59:43.964Z,0.0167,0.6659,1.6612,-0.1508,-0.2893,-0.151,-4.7869,-37.7328,-19.5202
2025-08-15T23:59:43.976Z,0.0632,0.5384,1.8243,-0.1295,-0.2054,-0.1673,-4.9258,-37.7563,-19.6658
2025-08-15T23:59:43.984Z,-0.0086,0.3436,1.9468,-0.0914,-0.0991,-0.1553,-4.9658,-37.7775,-19.7988
2025-08-15T23:59:43.994Z,-0.1452,0.0759,2.0132,-0.0318,0.0417,-0.1061,-4.9058,-37.805,-19.8312
2025-08-15T23:59:44.004Z,-0.2521,-0.1499,1.8511,0.0366,0.1988,-0.0346,-4.9091,-37.742,-19.868
2025-08-15T23:59:44.014Z,-0.3315,-0.366,1.6466,0.1078,0.3661,0.0355,-4.8735,-37.7255,-19.6302
2025-08-15T23:59:44.024Z,-0.3371,-0.5382,1.3328,0.1675,0.5166,0.1075,-4.8185,-37.8945,-19.6442
2025-08-15T23:59:44.034Z,-0.2918,-0.6303,0.8954,0.2086,0.6277,0.1647,-4.8089,-37.7906,-19.6514
2025-08-15T23:59:44.044Z,-0.241,-0.6821,0.4746,0.2325,0.6717,0.1986,-4.6827,-37.8286,-19.621
2025-08-15T23:59:44.054Z,-0.2057,-0.7161,0.0974,0.2544,0.6619,0.2132,-4.7676,-37.8789,-19.7251
2025-08-15T23:59:44.064Z,-0.1974,-0.7153,-0.2088,0.2752,0.6153,0.2281,-4.577,-37.9143,-19.5415
2025-08-15T23:59:44.074Z,-0.1909,-0.7388,-0.4823,0.3107,0.5553,0.2353,-4.7537,-37.9381,-19.3773
2025-08-15T23:59:44.083Z,-0.2061,-0.7945,-0.758,0.3534,0.4955,0.2451,-4.6041,-38.0492,-19.1619
2025-08-15T23:59:44.094Z,-0.2174,-0.8498,-1.0241,0.3989,0.437,0.2485,-4.6223,-38.0809,-19.154
2025-08-15T23:59:44.104Z,-0.2409,-0.9052,-1.3162,0.4229,0.3705,0.2444,-4.6991,-38.2594,-19.2046
2025-08-15T23:59:44.114Z,-0.3218,-0.9287,-1.5401,0.4146,0.2469,0.2242,-4.6288,-38.1826,-18.9394
2025-08-15T23:59:44.124Z,-0.396,-0.8664,-1.5419,0.3851,0.0869,0.2106,-4.74,-38.2064,-18.7424
2025-08-15T23:59:44.133Z,-0.4493,-0.7185,-1.4737,0.337,-0.0986,0.193,-4.841,-38.3681,-18.5427
2025-08-15T23:59:44.144Z,-0.4933,-0.64,-1.3385,0.2836,-0.2976,0.1598,-4.9767,-38.3615,-18.5536
2025-08-15T23:59:44.154Z,-0.4799,-0.6077,-1.0483,0.2502,-0.4525,0.1192,-4.8788,-38.4145,-18.3026
2025-08-15T23:59:44.164Z,-0.3498,-0.632,-0.6825,0.2472,-0.5314,0.0714,-4.9478,-38.3587,-18.2458
2025-08-15T23:59:44.174Z,-0.1543,-0.7337,-0.4138,0.2601,-0.5547,0.019,-5.0485,-38.4322,-17.9513
2025-08-15T23:59:44.183Z,0.0079,-0.878,-0.1403,0.2665,-0.5486,-0.0412,-5.2711,-38.5286,-17.9453
2025-08-15T23:59:44.194Z,0.0706,-0.9906,0.1088,0.2432,-0.5051,-0.1092,-5.3162,-38.6034,-17.7103
2025-08-15T23:59:44.204Z,0.0954,-1.0038,0.3057,0.2027,-0.4139,-0.1667,-5.452,-38.4993,-17.5826
2025-08-15T23:59:44.213Z,0.1131,-0.9344,0.4354,0.1557,-0.2667,-0.2207,-5.2912,-38.6615,-17.3024
2025-08-15T23:59:44.224Z,0.1354,-0.9024,0.4536,0.1139,-0.0759,-0.2639,-5.275,-38.6198,-17.2363
2025-08-15T23:59:44.233Z,0.1008,-0.9267,0.347,0.0856,0.1412,-0.2871,-5.0736,-38.8669,-17.2862
2025-08-15T23:59:44.244Z,0.0032,-0.9665,0.101,0.0624,0.3447,-0.2888,-5.1288,-38.7606,-17.451
2025-08-15T23:59:44.254Z,-0.1588,-0.982,-0.2388,0.0307,0.4847,-0.2707,-4.985,-38.7198,-17.4868
2025-08-15T23:59:44.264Z,-0.3213,-0.9657,-0.5932,-0.0069,0.5591,-0.2534,-4.869,-38.6569,-17.278
2025-08-15T23:59:44.274Z,-0.409,-0.8942,-0.9392,-0.052,0.5805,-0.2438,-4.7113,-38.6721,-17.5129
2025-08-15T23:59:44.284Z,-0.4371,-0.7248,-1.2453,-0.0918,0.5527,-0.2401,-4.5888,-38.7209,-17.6037
2025-08-15T23:59:44.294Z,-0.4209,-0.5268,-1.4745,-0.1146,0.4884,-0.2467,-4.4088,-38.8033,-17.6444
2025-08-15T23:59:44.304Z,-0.3613,-0.3967,-1.6157,-0.1278,0.4076,-0.275,-4.2911,-38.6643,-17.6786
2025-08-15T23:59:44.314Z,-0.3121,-0.3241,-1.7103,-0.1436,0.3071,-0.3149,-3.8991,-38.7838,-17.6091
2025-08-15T23:59:44.324Z,-0.3687,-0.1816,-1.6952,-0.1502,0.1955,-0.3441,-3.7813,-38.8428,-17.8188
2025-08-15T23:59:44.334Z,-0.4169,-0.0485,-1.6274,-0.1606,0.0895,-0.36,-3.5962,-38.7981,-17.9044
2025-08-15T23:59:44.344Z,-0.4757,0.004,-1.579,-0.1767,-0.0053,-0.3604,-3.4178,-38.8347,-18.1688
2025-08-15T23:59:44.354Z,-0.5543,0.0441,-1.4462,-0.1982,-0.0647,-0.3424,-3.463,-38.8064,-18.1092
2025-08-15T23:59:44.364Z,-0.5922,0.0894,-1.2892,-0.209,-0.0815,-0.3116,-3.2739,-38.6443,-17.9576
2025-08-15T23:59:44.374Z,-0.5579,0.1187,-1.1459,-0.2121,-0.075,-0.273,-3.1993,-38.5839,-18.0625
2025-08-15T23:59:44.384Z,-0.5476,0.1449,-0.9843,-0.2077,-0.048,-0.2326,-3.2062,-38.4772,-18.2679
2025-08-15T23:59:44.397Z,-0.5794,0.2718,-0.7318,-0.1854,-0.0147,-0.1972,-2.9522,-38.561,-18.4156
2025-08-15T23:59:44.404Z,-0.5794,0.2718,-0.7318,-0.1619,-0.0003,-0.167,-2.9522,-38.561,-18.4156
2025-08-15T23:59:44.414Z,-0.6503,0.3428,-0.6371,-0.1323,0.0075,-0.1408,-2.8718,-38.4036,-18.4931
2025-08-15T23:59:44.426Z,-0.6745,0.4655,-0.5147,-0.0927,0.0143,-0.1197,-2.6279,-38.3809,-18.6035
2025-08-15T23:59:44.433Z,-0.6745,0.4655,-0.5147,-0.0494,0.0089,-0.0902,-2.6279,-38.3809,-18.6035
2025-08-15T23:59:44.446Z,-0.7309,0.5379,-0.3703,-0.0081,-0.0056,-0.0573,-2.6254,-38.4158,-18.592
2025-08-15T23:59:44.456Z,-0.7301,0.5959,-0.337,0.0325,-0.028,-0.0199,-2.4972,-38.4262,-18.3767
2025-08-15T23:59:44.464Z,-0.7301,0.5959,-0.337,0.077,-0.0494,0.0057,-2.4972,-38.4262,-18.3767
2025-08-15T23:59:44.474Z,-0.7143,0.6466,-0.3283,0.1223,-0.082,0.0263,-2.628,-38.5612,-18.4099
2025-08-15T23:59:44.483Z,-0.714,0.6743,-0.3414,0.154,-0.1171,0.0286,-2.7029,-38.5596,-18.5118
2025-08-15T23:59:44.496Z,-0.6887,0.7426,-0.2839,0.1679,-0.1618,0.0243,-2.8365,-38.4888,-18.3326
2025-08-15T23:59:44.507Z,-0.5988,0.7757,-0.2223,0.1662,-0.2092,0.0118,-2.8626,-38.5789,-18.108
2025-08-15T23:59:44.516Z,-0.552,0.7938,-0.0776,0.1546,-0.2674,-0.0024,-2.8669,-38.5209,-18.2292
2025-08-15T23:59:44.526Z,-0.5326,0.8082,0.1132,0.1443,-0.3213,-0.0345,-2.9887,-38.7197,-18.2452
2025-08-15T23:59:44.533Z,-0.5326,0.8082,0.1132,0.1403,-0.3668,-0.0672,-2.9887,-38.7197,-18.2452
2025-08-15T23:59:44.546Z,-0.4377,0.6291,0.4458,0.1406,-0.3948,-0.1042,-3.1846,-38.9981,-18.0991
2025-08-15T23:59:44.556Z,-0.3695,0.4843,0.607,0.1389,-0.4018,-0.135,-3.0089,-38.8665,-17.8904
2025-08-15T23:59:44.566Z,-0.2706,0.3215,0.773,0.14,-0.3897,-0.1626,-3.2288,-39.062,-18.0936
2025-08-15T23:59:44.577Z,-0.207,0.1983,0.8592,0.1435,-0.3357,-0.177,-3.1367,-39.0013,-18.0309
2025-08-15T23:59:44.583Z,-0.207,0.1983,0.8592,0.1539,-0.236,-0.1751,-3.1367,-39.0013,-18.0309
2025-08-15T23:59:44.596Z,-0.4868,0.2642,0.4344,0.165,-0.0759,-0.1513,-3.1226,-39.0229,-17.9805
2025-08-15T23:59:44.606Z,-0.7079,0.3186,0.2199,0.1393,-0.0187,-0.1255,-3.0421,-38.8763,-17.7905
2025-08-15T23:59:44.616Z,-0.8809,0.3802,0.3647,0.0478,-0.1234,-0.1175,-3.0623,-38.905,-17.8121
2025-08-15T23:59:44.626Z,-0.7943,0.6259,0.6578,-0.0728,-0.3396,-0.1265,-3.0614,-39.0404,-17.8437
2025-08-15T23:59:44.636Z,-0.4337,0.7129,1.1428,-0.1864,-0.5807,-0.1765,-3.0998,-39.0452,-17.9328
2025-08-15T23:59:44.646Z,0.0265,0.5136,1.6488,-0.2594,-0.7449,-0.2654,-3.1014,-39.0906,-17.8724
2025-08-15T23:59:44.657Z,0.4835,0.201,1.9382,-0.2925,-0.7503,-0.3698,-2.8675,-39.0182,-17.8896
2025-08-15T23:59:44.664Z,0.4835,0.201,1.9382,-0.2977,-0.6091,-0.446,-2.8675,-39.0182,-17.8896
2025-08-15T23:59:44.676Z,0.5323,-0.2797,2.0441,-0.275,-0.3921,-0.4765,-2.7702,-39.0657,-18.0798
2025-08-15T23:59:44.686Z,0.3392,-0.5098,1.9224,-0.245,-0.1584,-0.4474,-2.7213,-38.9202,-18.3403
2025-08-15T23:59:44.695Z,0.167,-0.6711,1.6635,-0.2125,0.0615,-0.3706,-2.6026,-38.8283,-18.2427
2025-08-15T23:59:44.705Z,0.0771,-0.8049,1.2978,-0.18,0.2586,-0.2729,-2.3498,-38.8634,-18.3002
2025-08-15T23:59:44.716Z,0.0885,-0.8721,0.9782,-0.1489,0.3879,-0.1848,-2.326,-38.6981,-18.3339
2025-08-15T23:59:44.725Z,0.2102,-0.8615,0.6778,-0.1157,0.4574,-0.123,-2.1877,-38.8385,-18.6189
2025-08-15T23:59:44.735Z,0.4008,-0.7983,0.3539,-0.058,0.5,-0.0862,-2.3016,-38.8091,-18.5588
2025-08-15T23:59:44.745Z,0.5003,-0.7796,0.0486,0.0239,0.5122,-0.0588,-2.1821,-38.9058,-18.6157
2025-08-15T23:59:44.756Z,0.4831,-0.7917,-0.2555,0.1231,0.4919,-0.0413,-2.0491,-38.8806,-18.4387
2025-08-15T23:59:44.767Z,0.4612,-0.8318,-0.5705,0.2294,0.4412,-0.0015,-2.07,-38.8562,-18.3772
2025-08-15T23:59:44.775Z,0.4744,-0.8764,-0.8763,0.3334,0.3738,0.0493,-2.1052,-38.8403,-18.3096
2025-08-15T23:59:44.786Z,0.541,-0.9065,-1.1521,0.4157,0.2919,0.1037,-2.0386,-39.0417,-18.2743
2025-08-15T23:59:44.795Z,0.635,-0.851,-1.316,0.4605,0.1914,0.142,-2.1262,-38.8912,-18.1026
2025-08-15T23:59:44.805Z,0.777,-0.7092,-1.392,0.4589,0.0708,0.1472,-2.0368,-39.1455,-17.904
2025-08-15T23:59:44.815Z,0.9225,-0.5515,-1.3287,0.4102,-0.0832,0.1238,-2.1343,-39.0629,-17.5632
2025-08-15T23:59:44.825Z,1.1757,-0.4249,-1.1622,0.3264,-0.2437,0.0706,-2.2335,-39.3476,-17.4871
2025-08-15T23:59:44.835Z,1.4147,-0.3964,-0.9912,0.2287,-0.3934,-0.0123,-2.3948,-39.3228,-17.3766
2025-08-15T23:59:44.846Z,1.5937,-0.4722,-0.7598,0.1419,-0.5088,-0.1038,-2.363,-39.4416,-17.5787
2025-08-15T23:59:44.855Z,1.6844,-0.5853,-0.6064,0.0779,-0.5641,-0.1858,-2.344,-39.4238,-17.2691
2025-08-15T23:59:44.865Z,1.6061,-0.7031,-0.4407,0.026,-0.5657,-0.2559,-2.3698,-39.421,-17.534
2025-08-15T23:59:44.875Z,1.4653,-0.7583,-0.2697,-0.013,-0.5322,-0.306,-2.126,-39.5433,-17.3558
2025-08-15T23:59:44.886Z,1.3221,-0.7869,-0.2239,-0.0503,-0.4472,-0.3296,-2.2129,-39.2697,-17.3312
2025-08-15T23:59:44.895Z,1.156,-0.7996,-0.2297,-0.0958,-0.3346,-0.3321,-2.1302,-39.3194,-17.3766
2025-08-15T23:59:44.905Z,1.0166,-0.7685,-0.265,-0.158,-0.1965,-0.3234,-2.0385,-39.1572,-17.4517
2025-08-15T23:59:44.915Z,0.8436,-0.6503,-0.3423,-0.226,-0.0543,-0.3041,-1.9139,-39.1673,-17.5745
2025-08-15T23:59:44.926Z,0.7273,-0.5783,-0.3977,-0.2891,0.0658,-0.282,-1.7759,-39.0873,-17.7658
2025-08-15T23:59:44.934Z,0.6276,-0.5504,-0.4659,-0.3292,0.1398,-0.254,-1.7204,-39.0587,-17.8648
2025-08-15T23:59:44.945Z,0.5767,-0.4932,-0.4821,-0.3489,0.1576,-0.2261,-1.5577,-39.0574,-17.9329
2025-08-15T23:59:44.955Z,0.5664,-0.3915,-0.5155,-0.3331,0.1397,-0.1997,-1.3661,-39.1066,-18.0002
2025-08-15T23:59:44.966Z,0.579,-0.306,-0.573,-0.2848,0.0956,-0.1776,-1.3659,-39.0621,-18.4134
2025-08-15T23:59:44.975Z,0.629,-0.2753,-0.6778,-0.2147,0.0403,-0.1627,-1.3544,-38.9875,-18.3626
2025-08-15T23:59:44.984Z,0.6119,-0.2324,-0.7366,-0.1407,-0.0403,-0.153,-1.2699,-39.0828,-18.1987
2025-08-15T23:59:44.994Z,0.6282,-0.1879,-0.7744,-0.0672,-0.1247,-0.1517,-1.3238,-38.945,-18.0001
2025-08-15T23:59:45.004Z,0.6804,-0.1433,-0.9054,-0.0064,-0.1818,-0.1487,-1.1195,-38.8878,-18.2482
2025-08-15T23:59:45.014Z,0.7116,-0.1057,-0.9958,0.0343,-0.2118,-0.154,-1.2209,-38.8892,-18.2036
2025-08-15T23:59:45.024Z,0.7573,-0.0374,-1.0409,0.0457,-0.2077,-0.1584,-1.1479,-38.9067,-18.1816
2025-08-15T23:59:45.035Z,0.7824,0.0617,-1.1262,0.0326,-0.1765,-0.1577,-1.2266,-39.0457,-18.2714
2025-08-15T23:59:45.044Z,0.7834,0.1305,-1.1923,0.0031,-0.1404,-0.1562,-1.1219,-38.9716,-18.2124
2025-08-15T23:59:45.054Z,0.7839,0.19,-1.2104,-0.0385,-0.1067,-0.1683,-1.1339,-38.9076,-18.1548
2025-08-15T23:59:45.064Z,0.7794,0.2615,-1.2202,-0.0781,-0.0847,-0.1756,-0.9737,-39.0509,-18.1662
2025-08-15T23:59:45.076Z,0.8039,0.3208,-1.216,-0.1173,-0.0733,-0.1858,-0.9672,-38.8803,-18.0388
2025-08-15T23:59:45.084Z,0.8072,0.3839,-1.1584,-0.146,-0.0767,-0.1957,-0.9672,-38.8803,-18.0388
2025-08-15T23:59:45.094Z,0.8063,0.4399,-1.0629,-0.1636,-0.0818,-0.201,-0.8873,-38.8149,-18.3489
2025-08-15T23:59:45.105Z,0.7714,0.4808,-0.9938,-0.1559,-0.0839,-0.2026,-0.7219,-38.9855,-18.5012
2025-08-15T23:59:45.114Z,0.763,0.4802,-0.9145,-0.1301,-0.0787,-0.2076,-0.7219,-38.9855,-18.5012
2025-08-15T23:59:45.124Z,0.7216,0.4825,-0.8986,-0.0984,-0.0555,-0.2013,-0.7284,-38.662,-18.5392
2025-08-15T23:59:45.134Z,0.6819,0.4801,-0.9286,-0.0802,-0.0212,-0.187,-0.6256,-38.787,-18.4772
2025-08-15T23:59:45.144Z,0.6539,0.4864,-1.0126,-0.0728,0.0095,-0.149,-0.6239,-38.7066,-18.5449
2025-08-15T23:59:45.154Z,0.6482,0.456,-1.064,-0.0831,0.0195,-0.1044,-0.6213,-38.8479,-18.6276
2025-08-15T23:59:45.164Z,0.7044,0.4524,-1.0692,-0.1042,0.0158,-0.0618,-0.5045,-38.7833,-18.6007
2025-08-15T23:59:45.174Z,0.7692,0.5124,-1.0306,-0.1346,-0.0037,-0.036,-0.3289,-38.833,-18.5161
2025-08-15T23:59:45.185Z,0.8324,0.5656,-0.9278,-0.168,-0.0347,-0.02,-0.4601,-38.7474,-18.7815
2025-08-15T23:59:45.194Z,0.9024,0.6064,-0.8382,-0.2106,-0.066,-0.0073,-0.4701,-38.6968,-18.7174
2025-08-15T23:59:45.204Z,0.9384,0.6342,-0.6394,-0.2523,-0.1097,-0.0037,-0.4729,-38.9101,-18.8209
2025-08-15T23:59:45.214Z,0.9309,0.6763,-0.351,-0.291,-0.1623,0.0105,-0.5497,-38.7256,-18.9967
2025-08-15T23:59:45.225Z,0.8838,0.6727,-0.028,-0.304,-0.2244,0.0259,-0.5371,-38.6002,-18.8819
2025-08-15T23:59:45.234Z,0.8759,0.6416,0.3156,-0.2895,-0.2906,0.0451,-0.5848,-38.6507,-19.1514
2025-08-15T23:59:45.244Z,0.8726,0.585,0.5842,-0.2526,-0.3533,0.0612,-0.7573,-38.5567,-19.2632
2025-08-15T23:59:45.254Z,0.8171,0.5569,0.9177,-0.2021,-0.4313,0.07,-0.8198,-38.4191,-19.3931
2025-08-15T23:59:45.264Z,0.7458,0.5856,1.2605,-0.1365,-0.5055,0.0781,-0.8031,-38.5906,-19.5019
2025-08-15T23:59:45.274Z,0.7014,0.5507,1.431,-0.0576,-0.5311,0.0774,-0.8688,-38.484,-19.2312
2025-08-15T23:59:45.284Z,0.5709,0.5087,1.4132,0.0186,-0.4561,0.0689,-1.0488,-38.5415,-19.0268
2025-08-15T23:59:45.294Z,0.3799,0.5972,1.3166,0.0623,-0.3255,0.0685,-1.2491,-38.4978,-19.2668
2025-08-15T23:59:45.305Z,0.1753,0.6954,1.3703,0.0457,-0.2484,0.0798,-1.3298,-38.5142,-19.246
2025-08-15T23:59:45.314Z,0.0063,0.7793,1.563,-0.031,-0.2501,0.089,-1.4161,-38.5536,-19.1829
2025-08-15T23:59:45.324Z,0.0352,0.7859,1.6695,-0.1285,-0.2717,0.0858,-1.3731,-38.3854,-18.9823
2025-08-15T23:59:45.334Z,0.1349,0.7305,1.8981,-0.2145,-0.2845,0.0638,-1.5002,-38.3609,-19.2118
2025-08-15T23:59:45.344Z,0.1731,0.7218,2.2065,-0.2657,-0.2868,0.0347,-1.6234,-38.2387,-19.3189
2025-08-15T23:59:45.354Z,0.188,0.7124,2.4489,-0.2686,-0.2741,0.01,-1.7374,-38.3401,-19.5284
2025-08-15T23:59:45.364Z,0.1337,0.6865,2.6803,-0.2209,-0.2479,-0.0163,-1.6711,-38.2532,-19.5574
2025-08-15T23:59:45.374Z,0.0808,0.549,2.6821,-0.1207,-0.1731,-0.0297,-1.6143,-38.1829,-19.6377
2025-08-15T23:59:45.384Z,0.0608,0.3015,2.5433,0.0077,-0.0756,-0.0272,-1.709,-38.1578,-19.7503
2025-08-15T23:59:45.394Z,0.0133,0.0607,2.2798,0.1474,0.0333,-0.0049,-1.7204,-38.156,-19.6934
2025-08-15T23:59:45.404Z,-0.0367,-0.0561,1.8711,0.2789,0.1423,0.0325,-1.6569,-38.1705,-19.5119
2025-08-15T23:59:45.414Z,-0.0651,-0.1506,1.3547,0.3802,0.2395,0.0608,-1.7652,-38.2539,-19.3081
2025-08-15T23:59:45.424Z,-0.1042,-0.2478,0.8355,0.4395,0.3131,0.0776,-1.5702,-38.3143,-19.1608
2025-08-15T23:59:45.433Z,-0.1426,-0.3162,0.3075,0.4633,0.3646,0.0782,-1.7241,-38.4025,-19.129
2025-08-15T23:59:45.443Z,-0.1712,-0.3805,-0.1961,0.4715,0.4094,0.0746,-1.6061,-38.5475,-18.9047
2025-08-15T23:59:45.454Z,-0.1934,-0.4229,-0.6274,0.4552,0.4461,0.0771,-1.6925,-38.5069,-18.9281
2025-08-15T23:59:45.464Z,-0.2647,-0.4572,-0.977,0.4436,0.4647,0.0812,-1.5396,-38.7426,-18.558
2025-08-15T23:59:45.474Z,-0.3585,-0.5047,-1.3019,0.4301,0.4632,0.083,-1.5091,-38.7793,-18.4133
2025-08-15T23:59:45.483Z,-0.4754,-0.5187,-1.5384,0.4201,0.4375,0.0848,-1.4368,-38.7328,-18.2071
2025-08-15T23:59:45.494Z,-0.5729,-0.4849,-1.7,0.4082,0.3806,0.0676,-1.3879,-38.9826,-18.0566
2025-08-15T23:59:45.504Z,-0.7199,-0.4351,-1.7989,0.3817,0.2909,0.0511,-1.4683,-38.865,-17.7544
2025-08-15T23:59:45.514Z,-0.8743,-0.3803,-1.7596,0.329,0.1602,0.0335,-1.4092,-38.902,-17.6293
2025-08-15T23:59:45.523Z,-0.9592,-0.2814,-1.5757,0.254,-0.008,0.0095,-1.2708,-38.8843,-17.6317
2025-08-15T23:59:45.533Z,-1.0078,-0.1839,-1.2904,0.1659,-0.1997,-0.0152,-1.3396,-39.0124,-17.5256
2025-08-15T23:59:45.544Z,-1.0017,-0.2066,-0.8613,0.0872,-0.3877,-0.0434,-1.4817,-39.0879,-17.6649
2025-08-15T23:59:45.554Z,-0.911,-0.3783,-0.3937,0.036,-0.5432,-0.0648,-1.6229,-39.1636,-17.6817
2025-08-15T23:59:45.564Z,-0.7508,-0.5598,-0.0062,0.0173,-0.628,-0.0903,-1.6091,-39.1648,-17.3627
2025-08-15T23:59:45.574Z,-0.634,-0.714,0.4374,0.009,-0.6698,-0.1147,-1.5915,-39.3314,-17.4204
2025-08-15T23:59:45.583Z,-0.5482,-0.8617,0.8766,0.012,-0.6866,-0.129,-1.7481,-39.1512,-17.591
2025-08-15T23:59:45.596Z,-0.5216,-0.9406,1.0994,0.0832,-0.503,-0.1325,-1.8886,-38.9674,-17.383
2025-08-15T23:59:45.604Z,-0.5662,-0.954,1.279,0.0832,-0.503,-0.1325,-1.976,-38.9571,-17.3806
2025-08-15T23:59:45.614Z,-0.5867,-1.0131,1.2771,0.1543,-0.3167,-0.11,-1.9136,-39.1702,-17.2832
2025-08-15T23:59:45.626Z,-0.5837,-1.1197,1.027,0.3165,0.2522,-0.028,-1.7095,-39.3988,-17.1866
2025-08-15T23:59:45.633Z,-0.5765,-1.2067,0.5395,0.3165,0.2522,-0.028,-1.7651,-39.2509,-17.0428
2025-08-15T23:59:45.646Z,-0.6004,-1.2146,-0.0859,0.286,0.7486,0.0524,-1.7463,-39.1641,-16.9885
2025-08-15T23:59:45.654Z,-0.6508,-1.0967,-0.6514,0.286,0.7486,0.0524,-1.6755,-39.3014,-16.9518
2025-08-15T23:59:45.664Z,-0.6543,-0.8799,-1.0869,0.1874,0.8746,0.0703,-1.6201,-39.2962,-16.7406
2025-08-15T23:59:45.676Z,-0.6393,-0.6393,-1.4832,-0.0664,0.8988,0.0684,-1.3883,-39.2829,-16.7636
2025-08-15T23:59:45.683Z,-0.5891,-0.4306,-1.6528,-0.0664,0.8988,0.0684,-1.3599,-39.2559,-16.519
2025-08-15T23:59:45.696Z,-0.5742,-0.3229,-1.7264,-0.2248,0.6517,0.0197,-1.2161,-39.3388,-16.7808
2025-08-15T23:59:45.707Z,-0.5401,-0.3017,-1.7444,-0.2356,0.4712,-0.011,-1.148,-39.2004,-16.7126
2025-08-15T23:59:45.713Z,-0.4972,-0.3071,-1.6516,-0.2356,0.4712,-0.011,-1.1043,-39.3214,-16.8544
2025-08-15T23:59:45.725Z,-0.4644,-0.2824,-1.503,-0.1306,0.1481,-0.0285,-0.9658,-39.1377,-16.743
2025-08-15T23:59:45.733Z,-0.4671,-0.1892,-1.4038,-0.1306,0.1481,-0.0285,-0.8788,-39.0383,-16.9034
2025-08-15T23:59:45.745Z,-0.4663,-0.1188,-1.2976,0.0362,-0.0207,-0.016,-1.029,-39.1301,-17.01
2025-08-15T23:59:45.755Z,-0.4636,-0.0827,-1.2229,0.0917,-0.0643,-0.0068,-0.9739,-39.2644,-16.9077
2025-08-15T23:59:45.765Z,-0.4726,-0.0436,-1.0974,0.1197,-0.0806,-0.0009,-0.9168,-39.16,-16.8589
2025-08-15T23:59:45.776Z,-0.4577,0.0197,-0.9786,0.1096,-0.0664,0.0051,-0.8607,-39.1103,-16.848
2025-08-15T23:59:45.783Z,-0.4072,0.0812,-0.9098,0.1096,-0.0664,0.0051,-0.8229,-39.3292,-16.7528
2025-08-15T23:59:45.795Z,-0.3689,0.0865,-0.8306,0.0066,-0.0012,0.0235,-0.9862,-39.3509,-16.7182
2025-08-15T23:59:45.805Z,-0.3368,0.1403,-0.679,0.0066,-0.0012,0.0235,-0.972,-39.2753,-16.8369
2025-08-15T23:59:45.815Z,-0.3496,0.1869,-0.5691,-0.0448,0.1018,0.0579,-1.1617,-39.2265,-17.0028
2025-08-15T23:59:45.825Z,-0.3813,0.1865,-0.4797,-0.0255,0.1599,0.0715,-0.9824,-39.2925,-16.7634
2025-08-15T23:59:45.833Z,-0.4104,0.1011,-0.4423,-0.0255,0.1599,0.0715,-1.0243,-39.3661,-16.8449
2025-08-15T23:59:45.845Z,-0.4565,0.0687,-0.4435,0.0677,0.2785,0.125,-1.0365,-39.2238,-16.8166
2025-08-15T23:59:45.855Z,-0.5282,0.1526,-0.5307,0.1279,0.3238,0.1636,-0.9688,-39.4086,-16.8056
2025-08-15T23:59:45.865Z,-0.6065,0.2041,-0.6643,0.1785,0.3251,0.1847,-1.0948,-39.3219,-16.7217
2025-08-15T23:59:45.875Z,-0.7095,0.2414,-0.7998,0.1969,0.2629,0.1933,-1.1,-39.222,-16.6966
2025-08-15T23:59:45.883Z,-0.7705,0.3306,-0.8768,0.1969,0.2629,0.1933,-1.15,-39.1442,-16.6302
2025-08-15T23:59:45.895Z,-0.8333,0.4613,-0.889,0.1469,0.0245,0.1892,-1.263,-39.3384,-16.5944
2025-08-15T23:59:45.905Z,-0.8168,0.5555,-0.8611,0.0977,-0.1149,0.1694,-1.3334,-39.2015,-16.4278
2025-08-15T23:59:45.915Z,-0.7126,0.592,-0.7713,0.0448,-0.2364,0.1393,-1.4066,-39.3862,-16.457
2025-08-15T23:59:45.926Z,-0.5636,0.5319,-0.6042,0.0086,-0.3205,0.0975,-1.4109,-39.3238,-16.2522
2025-08-15T23:59:45.935Z,-0.3879,0.381,-0.4267,-0.0086,-0.3656,0.0575,-1.4025,-39.3602,-16.0372
2025-08-15T23:59:45.945Z,-0.2824,0.2087,-0.2241,-0.0176,-0.3804,0.021,-1.6348,-39.2506,-16.0822
2025-08-15T23:59:45.955Z,-0.235,0.0738,-0.0139,-0.0214,-0.3638,-0.0057,-1.6932,-39.3092,-16.2364
2025-08-15T23:59:45.966Z,-0.2075,-0.0596,0.1653,-0.0129,-0.3183,-0.0106,-1.7282,-39.2764,-16.0923
2025-08-15T23:59:45.975Z,-0.1903,-0.219,0.2514,0.0035,-0.2169,0.0099,-1.8408,-39.284,-16.0959
2025-08-15T23:59:45.984Z,-0.3049,-0.2402,0.1547,0.0144,-0.086,0.0577,-1.8464,-39.228,-15.974
2025-08-15T23:59:45.994Z,-0.5659,-0.0617,-0.1531,-0.0272,-0.0952,0.0881,-1.9218,-39.2455,-16.0433
2025-08-15T23:59:46.005Z,-0.6896,0.0442,-0.1156,-0.0272,-0.0952,0.0881,-1.9274,-39.3078,-15.9497
2025-08-15T23:59:46.014Z,-0.7975,0.1405,0.0629,-0.2416,-0.429,0.0549,-2.1828,-39.2753,-16.1128
2025-08-15T23:59:46.024Z,-0.7443,0.3269,0.3201,-0.363,-0.5747,0.0049,-2.2537,-39.145,-16.1032
2025-08-15T23:59:46.034Z,-0.4492,0.3638,0.6639,-0.4564,-0.6027,-0.0636,-2.247,-39.0579,-16.2314
2025-08-15T23:59:46.045Z,-0.0543,0.2632,0.9101,-0.5166,-0.5341,-0.1292,-2.3406,-39.0441,-16.3553
2025-08-15T23:59:46.054Z,0.2246,0.1057,1.0975,-0.5166,-0.5341,-0.1292,-2.5221,-38.8043,-16.5113
2025-08-15T23:59:46.064Z,0.3056,-0.0629,1.251,-0.5369,-0.2726,-0.2022,-2.5683,-38.6547,-16.6546
2025-08-15T23:59:46.074Z,0.246,-0.2282,1.3244,-0.5001,-0.1517,-0.1954,-2.5821,-38.7022,-17.0597
2025-08-15T23:59:46.085Z,0.1511,-0.3529,1.3292,-0.4553,-0.0754,-0.1689,-2.3998,-38.41,-17.1999
2025-08-15T23:59:46.094Z,0.1234,-0.4348,1.2472,-0.4185,-0.0721,-0.1429,-2.3926,-38.2964,-17.4254
2025-08-15T23:59:46.104Z,0.1143,-0.5103,1.2541,-0.3749,-0.1023,-0.1194,-2.3395,-38.3589,-17.4439
2025-08-15T23:59:46.114Z,0.1811,-0.4846,1.2555,-0.3144,-0.0901,-0.1142,-2.4088,-38.3604,-17.7479
2025-08-15T23:59:46.124Z,0.3192,-0.4781,1.1933,-0.2366,-0.0069,-0.1177,-2.3352,-38.3375,-18.014
2025-08-15T23:59:46.134Z,0.4318,-0.5754,1.0515,-0.1406,0.1468,-0.1066,-2.1488,-38.1807,-17.9256
2025-08-15T23:59:46.145Z,0.4519,-0.7194,0.7897,-0.044,0.331,-0.0574,-2.2094,-38.1237,-18.073
2025-08-15T23:59:46.154Z,0.4988,-0.9005,0.3451,0.0138,0.4924,0.0003,-2.2446,-38.0168,-18.0912
2025-08-15T23:59:46.165Z,0.4313,-1.0452,-0.1948,0.0413,0.5664,0.0642,-2.1825,-37.9296,-18.0951
2025-08-15T23:59:46.175Z,0.3169,-0.9898,-0.5354,0.0531,0.5428,0.1197,-2.0765,-38.128,-18.1063
2025-08-15T23:59:46.185Z,0.2853,-0.8153,-0.6859,0.0683,0.4652,0.1595,-1.9445,-38.0463,-17.9644
2025-08-15T23:59:46.195Z,0.4134,-0.7834,-0.8628,0.0739,0.337,0.182,-2.0192,-38.0162,-18.0484
2025-08-15T23:59:46.205Z,0.5575,-0.7436,-0.922,0.076,0.1567,0.185,-2.1238,-37.966,-17.9668
2025-08-15T23:59:46.215Z,0.722,-0.6215,-0.7764,0.08,-0.0354,0.1608,-2.1172,-38.1156,-17.828
2025-08-15T23:59:46.225Z,0.9353,-0.4796,-0.602,0.0846,-0.2186,0.1098,-2.1514,-38.0484,-17.7778
2025-08-15T23:59:46.234Z,1.1495,-0.4335,-0.347,0.0919,-0.37,0.0527,-1.9614,-38.1189,-17.6393
2025-08-15T23:59:46.245Z,1.3627,-0.4958,-0.1077,0.1012,-0.4588,-0.0052,-2.2196,-38.0441,-17.8272
2025-08-15T23:59:46.254Z,1.5479,-0.6041,0.0322,0.0816,-0.4908,-0.0566,-2.3029,-38.015,-17.7669
2025-08-15T23:59:46.265Z,1.6118,-0.643,0.1834,0.0515,-0.4711,-0.0973,-2.4886,-38.0456,-17.7834
2025-08-15T23:59:46.275Z,1.5918,-0.6318,0.3174,0.01,-0.3934,-0.1218,-2.5062,-37.9074,-17.7528
2025-08-15T23:59:46.283Z,1.5565,-0.6386,0.3051,-0.0389,-0.284,-0.1399,-2.4821,-37.818,-17.5112
2025-08-15T23:59:46.296Z,1.4658,-0.6705,0.2384,-0.0968,-0.1546,-0.1627,-2.5352,-37.9702,-17.527
2025-08-15T23:59:46.305Z,1.3283,-0.6589,0.12,-0.1723,-0.0065,-0.1812,-2.5607,-37.8106,-17.5745
2025-08-15T23:59:46.314Z,1.2243,-0.6119,-0.0564,-0.2569,0.1285,-0.1873,-2.4825,-37.7985,-17.4915
2025-08-15T23:59:46.325Z,1.0783,-0.5716,-0.2401,-0.344,0.2184,-0.1847,-2.4866,-37.8588,-17.7206
2025-08-15T23:59:46.333Z,0.9317,-0.5105,-0.3302,-0.344,0.2184,-0.1847,-2.3427,-37.8282,-17.8583
2025-08-15T23:59:46.344Z,0.7709,-0.3917,-0.351,-0.4181,0.2702,-0.157,-2.321,-37.9205,-18.0675
2025-08-15T23:59:46.355Z,0.6783,-0.2756,-0.3394,-0.3723,0.247,-0.1446,-2.1065,-37.6645,-18.1675
2025-08-15T23:59:46.364Z,0.6318,-0.2597,-0.3898,-0.2936,0.1925,-0.1279,-2.153,-37.596,-18.3065
2025-08-15T23:59:46.374Z,0.5748,-0.3032,-0.4639,-0.1965,0.1133,-0.1155,-1.8728,-37.6219,-18.5875
2025-08-15T23:59:46.384Z,0.5016,-0.2936,-0.5183,-0.1093,0.0091,-0.1002,-1.6735,-37.5741,-18.6068
2025-08-15T23:59:46.394Z,0.4346,-0.2224,-0.5282,-0.0273,-0.0678,-0.0837,-1.6399,-37.5203,-18.5513
2025-08-15T23:59:46.405Z,0.4368,-0.118,-0.5914,0.0382,-0.1133,-0.0663,-1.8622,-37.5837,-18.5754
2025-08-15T23:59:46.414Z,0.4714,-0.0931,-0.7224,0.0764,-0.1493,-0.062,-1.9059,-37.6343,-18.5815
2025-08-15T23:59:46.424Z,0.5057,-0.1025,-0.7908,0.0812,-0.1603,-0.0671,-1.8516,-37.4768,-18.429
2025-08-15T23:59:46.434Z,0.5174,-0.0511,-0.8316,0.0675,-0.1415,-0.0777,-1.8455,-37.7386,-18.447
2025-08-15T23:59:46.446Z,0.5877,0.0288,-0.8679,0.0408,-0.0881,-0.0831,-1.7828,-37.7049,-18.5482
2025-08-15T23:59:46.454Z,0.6488,0.0724,-0.9575,0.0019,-0.037,-0.0854,-1.7927,-37.8609,-18.3918
2025-08-15T23:59:46.464Z,0.7006,0.0547,-0.9951,-0.042,0.0072,-0.1058,-1.6356,-37.8442,-18.5488
2025-08-15T23:59:46.474Z,0.6684,0.1051,-0.9756,-0.0797,0.0385,-0.1205,-1.671,-37.945,-18.5853
2025-08-15T23:59:46.484Z,0.6394,0.2289,-0.9511,-0.1042,0.0823,-0.1337,-1.5967,-37.794,-18.4847
2025-08-15T23:59:46.495Z,0.6765,0.257,-1.0018,-0.1163,0.0994,-0.1492,-1.7174,-37.7439,-18.609
2025-08-15T23:59:46.504Z,0.6944,0.188,-1.0006,-0.1311,0.0728,-0.1636,-1.6724,-37.6587,-18.7319
2025-08-15T23:59:46.514Z,0.5946,0.2447,-0.87,-0.1392,0.0482,-0.1586,-1.5039,-37.6387,-18.5928
2025-08-15T23:59:46.524Z,0.5048,0.3908,-0.7854,-0.131,0.0403,-0.1439,-1.3928,-37.5991,-18.6379
2025-08-15T23:59:46.534Z,0.4889,0.4674,-0.7181,-0.1048,0.0555,-0.1331,-1.1219,-37.6629,-18.7599
2025-08-15T23:59:46.544Z,0.4703,0.4417,-0.7026,-0.0783,0.0792,-0.1221,-1.1347,-37.7044,-18.8884
2025-08-15T23:59:46.554Z,0.4099,0.4422,-0.6713,-0.0662,0.1104,-0.1077,-1.044,-37.7054,-18.7661
2025-08-15T23:59:46.565Z,0.3879,0.5258,-0.6552,-0.0748,0.1469,-0.081,-0.9965,-37.5023,-18.6355
2025-08-15T23:59:46.574Z,0.404,0.6227,-0.6389,-0.0797,0.173,-0.0503,-0.9652,-37.5789,-18.8706
2025-08-15T23:59:46.584Z,0.355,0.7217,-0.5841,-0.0807,0.165,-0.0237,-1.016,-37.4048,-18.8782
2025-08-15T23:59:46.594Z,0.2915,0.7533,-0.5203,-0.0799,0.1375,0.0037,-1.036,-37.4474,-18.9955
2025-08-15T23:59:46.605Z,0.2423,0.7762,-0.4582,-0.0703,0.1028,0.0314,-0.9351,-37.5736,-18.9592
2025-08-15T23:59:46.614Z,0.2085,0.8527,-0.4078,-0.0584,0.0683,0.0611,-1.004,-37.589,-19.0572
2025-08-15T23:59:46.624Z,0.2146,0.8863,-0.3724,-0.0422,0.0215,0.0836,-0.8036,-37.4666,-19.0589
2025-08-15T23:59:46.633Z,0.2371,0.8785,-0.2709,-0.0372,-0.0338,0.0917,-0.7984,-37.6353,-19.0874
2025-08-15T23:59:46.645Z,0.2601,0.8981,-0.0991,-0.0261,-0.084,0.0873,-0.7272,-37.5548,-19.0821
2025-08-15T23:59:46.654Z,0.3123,0.9122,0.1469,-0.0132,-0.1146,0.0847,-0.8411,-37.6045,-19.0973
2025-08-15T23:59:46.664Z,0.4123,0.8779,0.378,0.0026,-0.1213,0.0911,-0.8879,-37.4879,-19.1143
2025-08-15T23:59:46.674Z,0.4813,0.7954,0.5736,0.0206,-0.1179,0.0998,-1.054,-37.5977,-19.1495
2025-08-15T23:59:46.683Z,0.4975,0.7254,0.7835,0.0453,-0.1015,0.1068,-0.993,-37.5033,-18.8758
2025-08-15T23:59:46.694Z,0.5199,0.6491,0.9776,0.0784,-0.0409,0.1201,-1.0334,-37.8164,-18.9758
2025-08-15T23:59:46.704Z,0.5477,0.6005,1.0811,0.1228,0.0952,0.1364,-1.1637,-37.6434,-18.963
2025-08-15T23:59:46.714Z,0.4907,0.5878,0.9582,0.1478,0.2283,0.1547,-1.2322,-37.6123,-18.8822
2025-08-15T23:59:46.724Z,0.3699,0.6112,0.8111,0.1328,0.2785,0.1672,-1.0392,-37.7299,-18.8015
2025-08-15T23:59:46.733Z,0.1499,0.6842,0.7888,0.076,0.2419,0.1797,-0.8939,-37.8535,-18.7903
2025-08-15T23:59:46.744Z,-0.0004,0.8016,0.7354,-0.0028,0.1034,0.179,-0.9632,-37.7254,-18.8079
2025-08-15T23:59:46.754Z,-0.0275,0.7647,0.8452,-0.0947,-0.0901,0.1402,-0.9377,-37.8617,-18.7681
2025-08-15T23:59:46.764Z,-0.0052,0.6634,1.1986,-0.1699,-0.2744,0.0908,-1.0027,-37.665,-18.7786
2025-08-15T23:59:46.774Z,0.092,0.5987,1.7262,-0.1959,-0.3783,0.0608,-1.0201,-37.7761,-18.7677
2025-08-15T23:59:46.783Z,0.2707,0.4819,2.1955,-0.1768,-0.3864,0.0454,-1.0523,-37.7637,-18.7448
2025-08-15T23:59:46.794Z,0.3004,0.2274,2.4186,-0.1311,-0.3715,0.0349,-1.1423,-37.7367,-18.8561
2025-08-15T23:59:46.804Z,0.1587,0.0205,2.7999,-0.0387,-0.2809,0.058,-1.089,-37.715,-18.8722
2025-08-15T23:59:46.814Z,0.09,-0.2146,2.9007,0.1079,-0.123,0.1033,-1.2205,-37.7272,-18.9303
2025-08-15T23:59:46.824Z,0.0746,-0.5399,2.7092,0.2706,0.0815,0.1694,-1.1646,-37.9355,-19.0031
2025-08-15T23:59:46.834Z,0.1022,-0.85,2.415,0.4052,0.3162,0.2432,-1.2115,-37.9643,-18.8176
2025-08-15T23:59:46.844Z,0.0945,-1.0674,1.9018,0.4729,0.504,0.3126,-1.0665,-37.9853,-18.674
2025-08-15T23:59:46.854Z,0.0087,-1.1612,1.383,0.4819,0.6389,0.3782,-1.1646,-38.0383,-18.722
2025-08-15T23:59:46.864Z,-0.0245,-1.1379,0.8653,0.4654,0.7621,0.4316,-1.1535,-38.0671,-18.4867
2025-08-15T23:59:46.874Z,0.0763,-1.1306,0.202,0.4397,0.8507,0.4529,-1.1089,-38.3134,-18.303
2025-08-15T23:59:46.883Z,0.1874,-1.1749,-0.3214,0.4116,0.8769,0.4596,-1.1935,-38.3169,-18.2845
2025-08-15T23:59:46.894Z,0.2093,-1.204,-0.6942,0.3909,0.8555,0.4596,-1.129,-38.2995,-18.043
2025-08-15T23:59:46.904Z,0.2157,-1.2117,-1.0613,0.3869,0.7841,0.4575,-1.0805,-38.3005,-17.9081
2025-08-15T23:59:46.914Z,0.1874,-1.1928,-1.3468,0.3873,0.6666,0.4551,-1.2243,-38.2842,-17.8787
2025-08-15T23:59:46.924Z,0.1376,-1.21,-1.5692,0.3829,0.4934,0.4342,-1.0602,-38.5288,-17.3624
2025-08-15T23:59:46.933Z,0.0451,-1.2297,-1.6554,0.3687,0.2661,0.3972,-1.1952,-38.52,-17.2478
2025-08-15T23:59:46.944Z,-0.0706,-1.214,-1.6094,0.355,0.0326,0.3487,-1.1062,-38.555,-17.0505
2025-08-15T23:59:46.954Z,-0.1436,-1.1844,-1.4857,0.3304,-0.198,0.3001,-1.3089,-38.6872,-17.1156
2025-08-15T23:59:46.964Z,-0.176,-1.2037,-1.2799,0.3146,-0.3859,0.2561,-1.4005,-38.8264,-16.9865
2025-08-15T23:59:46.974Z,-0.1225,-1.2894,-1.0128,0.3114,-0.5042,0.227,-1.4225,-38.8916,-16.9981
2025-08-15T23:59:46.983Z,-0.0582,-1.3917,-0.7363,0.3035,-0.5664,0.2018,-1.4879,-38.9683,-16.8224
2025-08-15T23:59:46.994Z,-0.0162,-1.4779,-0.4265,0.2933,-0.595,0.1729,-1.6056,-38.9748,-16.5658
2025-08-15T23:59:47.004Z,0.0342,-1.5567,-0.1125,0.2523,-0.6117,0.1385,-1.683,-38.9776,-16.3907
2025-08-15T23:59:47.014Z,0.1215,-1.6251,0.1894,0.196,-0.6084,0.0923,-1.7974,-39.0199,-16.3496
2025-08-15T23:59:47.024Z,0.2521,-1.6684,0.4999,0.1374,-0.5811,0.0456,-1.8697,-39.0936,-16.2374
2025-08-15T23:59:47.033Z,0.3748,-1.7079,0.7951,0.0934,-0.5083,-0.0101,-1.9574,-39.3182,-16.1344
2025-08-15T23:59:47.044Z,0.4683,-1.6926,1.0678,0.0644,-0.3939,-0.0644,-1.8215,-39.3262,-16.0627
2025-08-15T23:59:47.054Z,0.5361,-1.6717,1.3205,0.0826,-0.232,-0.1158,-2.0726,-39.2849,-16.1093
2025-08-15T23:59:47.064Z,0.6537,-1.7053,1.4173,0.1415,-0.0275,-0.1518,-2.0673,-39.2263,-16.1844
2025-08-15T23:59:47.074Z,0.6962,-1.7822,1.3138,0.2298,0.1829,-0.1614,-1.9272,-39.2291,-16.0619
2025-08-15T23:59:47.083Z,0.6776,-1.8599,1.0041,0.31,0.3698,-0.1666,-1.8533,-39.3821,-16.1199
2025-08-15T23:59:47.096Z,0.4077,-1.7352,-0.0239,0.3484,0.4715,-0.1774,-1.5256,-39.3718,-15.6113
2025-08-15T23:59:47.104Z,0.4077,-1.7352,-0.0239,0.3433,0.4727,-0.1941,-1.5256,-39.3718,-15.6113
2025-08-15T23:59:47.114Z,0.2603,-1.4973,-0.3984,0.3214,0.4433,-0.2097,-1.4212,-39.3408,-15.4818
2025-08-15T23:59:47.124Z,0.2776,-1.3283,-0.8171,0.2867,0.4027,-0.252,-1.2066,-39.3365,-15.3746
2025-08-15T23:59:47.133Z,0.3425,-1.209,-1.2041,0.237,0.3331,-0.318,-0.9652,-39.4099,-15.5134
2025-08-15T23:59:47.146Z,0.3898,-0.9622,-1.5787,0.1839,0.2324,-0.3965,-0.4017,-39.645,-15.0599
2025-08-15T23:59:47.154Z,0.3898,-0.9622,-1.5787,0.1213,0.0929,-0.4836,-0.4017,-39.645,-15.0599
2025-08-15T23:59:47.166Z,0.2836,-0.7384,-1.5016,0.0463,-0.0685,-0.5852,0.121,-39.7254,-15.1888
2025-08-15T23:59:47.176Z,0.2374,-0.6721,-1.3416,-0.0253,-0.2175,-0.6758,0.3897,-39.6349,-14.9799
2025-08-15T23:59:47.183Z,0.2374,-0.6721,-1.3416,-0.0775,-0.316,-0.7343,0.3897,-39.6349,-14.9799
2025-08-15T23:59:47.197Z,0.2067,-0.7786,-1.036,-0.0966,-0.3482,-0.7666,0.901,-39.5783,-15.1862
2025-08-15T23:59:47.206Z,0.1926,-0.8598,-0.8709,-0.0993,-0.3314,-0.7823,1.1245,-39.6171,-15.1455
2025-08-15T23:59:47.213Z,0.1926,-0.8598,-0.8709,-0.0851,-0.2827,-0.7808,1.1245,-39.6171,-15.1455
2025-08-15T23:59:47.226Z,0.184,-0.8248,-0.6673,-0.0698,-0.2271,-0.7706,1.9062,-39.6484,-15.2604
2025-08-15T23:59:47.234Z,0.184,-0.8248,-0.6673,-0.062,-0.1911,-0.7676,1.9062,-39.6484,-15.2604
2025-08-15T23:59:47.246Z,0.1088,-0.6177,-0.4876,-0.0725,-0.1775,-0.7789,2.5628,-39.4753,-15.3412
2025-08-15T23:59:47.254Z,0.1088,-0.6177,-0.4876,-0.0993,-0.1708,-0.8014,2.5628,-39.4753,-15.3412
2025-08-15T23:59:47.267Z,0.19,-0.3536,-0.4847,-0.1338,-0.1701,-0.8279,3.1206,-39.4905,-15.4225
2025-08-15T23:59:47.276Z,0.1098,-0.2407,-0.4345,-0.1637,-0.1812,-0.849,3.4507,-39.3967,-15.5938
2025-08-15T23:59:47.286Z,0.0124,-0.1411,-0.4112,-0.1828,-0.1954,-0.8622,3.8527,-39.4105,-15.4963
2025-08-15T23:59:47.296Z,-0.0517,-0.0909,-0.3909,-0.1902,-0.2157,-0.8709,4.1841,-39.1474,-15.6702
2025-08-15T23:59:47.308Z,-0.0999,-0.073,-0.3482,-0.185,-0.2448,-0.8692,4.4656,-39.0857,-15.9224
2025-08-15T23:59:47.316Z,-0.1256,-0.0439,-0.2875,-0.1766,-0.295,-0.8713,4.8119,-38.9619,-15.9456
2025-08-15T23:59:47.326Z,-0.1187,0.0175,-0.194,-0.1659,-0.352,-0.8734,5.11,-39.1027,-16.0499
2025-08-15T23:59:47.336Z,-0.0401,0.0718,-0.1111,-0.1553,-0.3942,-0.8842,5.5859,-38.941,-16.053
2025-08-15T23:59:47.347Z,0.0166,0.0668,-0.0629,-0.1428,-0.4164,-0.9004,5.7133,-38.8996,-16.1635
2025-08-15T23:59:47.356Z,0.0441,0.0781,-0.0116,-0.1345,-0.4158,-0.919,6.0442,-38.6959,-16.293
2025-08-15T23:59:47.366Z,0.0242,0.1456,0.0044,-0.1395,-0.3974,-0.9294,6.4647,-38.7786,-16.2221
2025-08-15T23:59:47.376Z,0.0419,0.1901,-0.0301,-0.1465,-0.3592,-0.9292,6.7444,-38.6451,-16.4364
2025-08-15T23:59:47.385Z,0.0298,0.1933,-0.07,-0.1585,-0.317,-0.9239,7.0876,-38.5804,-16.4844
2025-08-15T23:59:47.395Z,0.012,0.2225,-0.1092,-0.178,-0.2857,-0.9223,7.4901,-38.5116,-16.6567
2025-08-15T23:59:47.406Z,0.0076,0.3074,-0.0954,-0.1972,-0.2834,-0.9235,7.8722,-38.2265,-16.7685
2025-08-15T23:59:47.417Z,-0.0116,0.399,-0.0781,-0.2191,-0.2992,-0.9243,8.2851,-38.2042,-16.9066
2025-08-15T23:59:47.425Z,-0.0393,0.4551,-0.0189,-0.219,-0.3268,-0.9253,8.702,-38.1152,-16.8068
2025-08-15T23:59:47.435Z,-0.1132,0.5031,0.071,-0.1976,-0.362,-0.9294,9.0492,-37.8727,-16.9237
